trialInstr,x_fixStart,y_fixStart,x_corrSteps,y_corrSteps,x_nrSteps,y_nrSteps,alienID,trialLength,version,trialTrain,praclen,testlen,trial_label,break_on_off,beforeExpLoop.thisRepN,beforeExpLoop.thisTrialN,beforeExpLoop.thisN,beforeExpLoop.thisIndex,mini_instr_trials.thisRepN,mini_instr_trials.thisTrialN,mini_instr_trials.thisN,mini_instr_trials.thisIndex,instrLoop.thisRepN,instrLoop.thisTrialN,instrLoop.thisN,instrLoop.thisIndex,repeat_prac.thisRepN,repeat_prac.thisTrialN,repeat_prac.thisN,repeat_prac.thisIndex,trainLoop.thisRepN,trainLoop.thisTrialN,trainLoop.thisN,trainLoop.thisIndex,moveLoop_train.thisRepN,moveLoop_train.thisTrialN,moveLoop_train.thisN,moveLoop_train.thisIndex,experiment.thisRepN,experiment.thisTrialN,experiment.thisN,experiment.thisIndex,moveLoop_test.thisRepN,moveLoop_test.thisTrialN,moveLoop_test.thisN,moveLoop_test.thisIndex,mini_instr2_trials.thisRepN,mini_instr2_trials.thisTrialN,mini_instr2_trials.thisN,mini_instr2_trials.thisIndex,start_all_time,url,slideStim,audioStim,slides.started,sounds.started,nextButton.numClicks,nextButton.timesOn,nextButton.timesOff,prev_but.numClicks,prev_but.timesOn,prev_but.timesOff,alienStim,instrFile,alienStim_instr,gridImage_instr.started,startPos_3.started,key_instr.started,alienImage_3.started,sounds_1.started,key_instr.keys,key_instr.rt,all_x,all_y,FBy_corrSteps,FBy_fixStart,FBx_corrSteps,FBx_fixStart,FBy_pathSize_check,FBx_pathSize_check,gridImage_9.started,alienImageFB_3.started,startPosFB_3.started,keyFB_3.started,pathLine_ydir_2.started,pathLine_xdir_2.started,alienFace_3.started,sounds_2.started,RTFB_instr,keyFB_3.keys,keyFB_3.rt,draw_alienStim,draw_alienID,test_x,nrepcount,perfthres,percthres,earlierperf,earlystop,nextPrac,fileidx,praclen,saveACC_train,pracFile,nextPrac_train,addNrep,fileidx_endr,repExp,showearly,gridImage_4.started,startPos.started,movePos.started,key_resp.started,alienImage.started,buttonPress_train,RTchoice_train,cumAcctrain,aCorr,saveACC_choice,corrAns,x_movePos_end,y_movePos_end,key_resp.keys,key_resp.rt,wLy_dir,wLx_dir,x_movePos,y_movePos,text_2.started,text_2.stopped,aft_x_corrPos,aft_y_corrPos,y_pathSize_check,x_pathSize_check,y_pathdirY,x_pathdirY,x_pathdirX,x_corrPos,y_corrPos,gridImage_6.started,alienImageFB_2.started,startPosFB_2.started,movePosFB_2.started,keyFB_2.started,pathLine_xdir.started,pathLine_ydir.started,alienFace.started,sounds_4.started,RT_FBtrain,keyFB_2.keys,keyFB_2.rt,saveACC_pre,ACC,within_saveACC_train,earlystop_wloop,cumAcctrain_check,gridImage_3.started,alienImage_test.started,startPos_test.started,movePos_test.started,key_resp_test.started,wLy_dir_test,wLx_dir_test,buttonPress_test,RTchoice_test,cumAcctest,corrAns_test,key_resp_test.keys,key_resp_test.rt,text_3.started,text_3.stopped,total_time,end_all_time,key_resp_3.keys,slides_2.started,sounds_3.started,nextButton_2.numClicks,nextButton_2.timesOn,nextButton_2.timesOff,prev_but_2.numClicks,prev_but_2.timesOn,prev_but_2.timesOff,bye.started,participant,train_first,00_coordinate,starting corner,date,expName,psychopyVersion,frameRate,
,,,,,,,,,,,,,,,0,0,0,0,0,0,0,0,,,,,,,,,,,,,,,,,,,,,,,,,,,,,start_all_time,testround,conditions/schedules/train_x_first/blue_star_00/bottom_left/instructions/Slide1.png,conditions/schedules/train_x_first/blue_star_00/bottom_left/instructions/Audio1.wav,393.0510676999111,393.00064319672526,1,[2.850459299981594],[2.8504676000447944],0,,,,,,,,,,,,,,,,,,,,,,,,,,,,,,,,,,,,,,,,,,,,,,,,,,,,,,,,,,,,,,,,,,,,,,,,,,,,,,,,,,,,,,,,,,,,,,,,,,,,,,,,,,,,,,,,,,,,,,,,,,,,ZPRAQF,train_x,blue_star,bottom_left,2025-09-05_17h29.30.823,HideSeek_v1,2022.2.5,59.99448049370354,
,,,,,,,,,,,,,,,0,0,0,0,1,0,1,0,,,,,,,,,,,,,,,,,,,,,,,,,,,,,,,conditions/schedules/train_x_first/blue_star_00/bottom_left/instructions/Slide2.png,conditions/schedules/train_x_first/blue_star_00/bottom_left/instructions/Audio2.wav,395.91951039992273,395.9210162998643,2,"[2.850459299981594, 18.148223500000313]","[0.00022060004994273186, 18.14823090005666]",0,,,,,,,,,,,,,,,,,,,,,,,,,,,,,,,,,,,,,,,,,,,,,,,,,,,,,,,,,,,,,,,,,,,,,,,,,,,,,,,,,,,,,,,,,,,,,,,,,,,,,,,,,,,,,,,,,,,,,,,,,,,,ZPRAQF,train_x,blue_star,bottom_left,2025-09-05_17h29.30.823,HideSeek_v1,2022.2.5,59.99448049370354,
,,,,,,,,,,,,,,,0,0,0,0,2,0,2,0,,,,,,,,,,,,,,,,,,,,,,,,,,,,,,,conditions/schedules/train_x_first/blue_star_00/bottom_left/instructions/Slide3.png,conditions/schedules/train_x_first/blue_star_00/bottom_left/instructions/Audio3.wav,414.1352061999496,414.1361875998555,3,"[2.850459299981594, 18.148223500000313, 17.16323479998391]","[0.00022060004994273186, 0.04902909998781979, 17.163242700044066]",0,,,,,,,,,,,,,,,,,,,,,,,,,,,,,,,,,,,,,,,,,,,,,,,,,,,,,,,,,,,,,,,,,,,,,,,,,,,,,,,,,,,,,,,,,,,,,,,,,,,,,,,,,,,,,,,,,,,,,,,,,,,,ZPRAQF,train_x,blue_star,bottom_left,2025-09-05_17h29.30.823,HideSeek_v1,2022.2.5,59.99448049370354,
,,,,,,,,,,,,,,,0,0,0,0,3,0,3,0,,,,,,,,,,,,,,,,,,,,,,,,,,,,,,,conditions/schedules/train_x_first/blue_star_00/bottom_left/instructions/Slide4.png,conditions/schedules/train_x_first/blue_star_00/bottom_left/instructions/Audio4.wav,431.37901189993136,431.367251599906,4,"[2.850459299981594, 18.148223500000313, 17.16323479998391, 19.1854258000385]","[0.00022060004994273186, 0.04902909998781979, 0.0002145000034943223, 19.18543369998224]",0,,,,,,,,,,,,,,,,,,,,,,,,,,,,,,,,,,,,,,,,,,,,,,,,,,,,,,,,,,,,,,,,,,,,,,,,,,,,,,,,,,,,,,,,,,,,,,,,,,,,,,,,,,,,,,,,,,,,,,,,,,,,ZPRAQF,train_x,blue_star,bottom_left,2025-09-05_17h29.30.823,HideSeek_v1,2022.2.5,59.99448049370354,
,,,,,,,,,,,,,,,0,0,0,0,4,0,4,0,,,,,,,,,,,,,,,,,,,,,,,,,,,,,,,conditions/schedules/train_x_first/blue_star_00/bottom_left/instructions/Slide5.png,conditions/schedules/train_x_first/blue_star_00/bottom_left/instructions/Audio5.wav,450.629781799973,450.61642599985936,5,"[2.850459299981594, 18.148223500000313, 17.16323479998391, 19.1854258000385, 4.555508199962787]","[0.00022060004994273186, 0.04902909998781979, 0.0002145000034943223, 0.01503679994493723, 4.555515899905004]",0,,,,,,,,,,,,,,,,,,,,,,,,,,,,,,,,,,,,,,,,,,,,,,,,,,,,,,,,,,,,,,,,,,,,,,,,,,,,,,,,,,,,,,,,,,,,,,,,,,,,,,,,,,,,,,,,,,,,,,,,,,,,ZPRAQF,train_x,blue_star,bottom_left,2025-09-05_17h29.30.823,HideSeek_v1,2022.2.5,59.99448049370354,
,,,,,,,,,,,,,,,0,0,0,0,5,0,5,0,,,,,,,,,,,,,,,,,,,,,,,,,,,,,,,conditions/schedules/train_x_first/blue_star_00/bottom_left/instructions/Slide6.png,conditions/schedules/train_x_first/blue_star_00/bottom_left/instructions/Audio6.wav,455.23574269993696,455.23679509987124,6,"[2.850459299981594, 18.148223500000313, 17.16323479998391, 19.1854258000385, 4.555508199962787, 5.370316099957563]","[0.00022060004994273186, 0.04902909998781979, 0.0002145000034943223, 0.01503679994493723, 0.014617699896916747, 5.370323899900541]",0,,,,,,,,,,,,,,,,,,,,,,,,,,,,,,,,,,,,,,,,,,,,,,,,,,,,,,,,,,,,,,,,,,,,,,,,,,,,,,,,,,,,,,,,,,,,,,,,,,,,,,,,,,,,,,,,,,,,,,,,,,,,ZPRAQF,train_x,blue_star,bottom_left,2025-09-05_17h29.30.823,HideSeek_v1,2022.2.5,59.99448049370354,
,,,,,,,,,,,,,,,0,0,0,0,6,0,6,0,,,,,,,,,,,,,,,,,,,,,,,,,,,,,,,conditions/schedules/train_x_first/blue_star_00/bottom_left/instructions/Slide7.png,conditions/schedules/train_x_first/blue_star_00/bottom_left/instructions/Audio7.wav,460.6629020998953,460.65818809992635,7,"[2.850459299981594, 18.148223500000313, 17.16323479998391, 19.1854258000385, 4.555508199962787, 5.370316099957563, 5.6315761000150815]","[0.00022060004994273186, 0.04902909998781979, 0.0002145000034943223, 0.01503679994493723, 0.014617699896916747, 0.06467730004806072, 5.631583999958821]",0,,,,,,,,,,,,,,,,,,,,,,,,,,,,,,,,,,,,,,,,,,,,,,,,,,,,,,,,,,,,,,,,,,,,,,,,,,,,,,,,,,,,,,,,,,,,,,,,,,,,,,,,,,,,,,,,,,,,,,,,,,,,ZPRAQF,train_x,blue_star,bottom_left,2025-09-05_17h29.30.823,HideSeek_v1,2022.2.5,59.99448049370354,
,,,,,,,,,,,,,,,0,0,0,0,7,0,7,0,,,,,,,,,,,,,,,,,,,,,,,,,,,,,,,conditions/schedules/train_x_first/blue_star_00/bottom_left/instructions/Slide8.png,conditions/schedules/train_x_first/blue_star_00/bottom_left/instructions/Audio8.wav,466.352936899988,466.3464664999163,8,"[2.850459299981594, 18.148223500000313, 17.16323479998391, 19.1854258000385, 4.555508199962787, 5.370316099957563, 5.6315761000150815, 11.350634000031278]","[0.00022060004994273186, 0.04902909998781979, 0.0002145000034943223, 0.01503679994493723, 0.014617699896916747, 0.06467730004806072, 0.0376535999821499, 11.350641400087625]",0,,,,,,,,,,,,,,,,,,,,,,,,,,,,,,,,,,,,,,,,,,,,,,,,,,,,,,,,,,,,,,,,,,,,,,,,,,,,,,,,,,,,,,,,,,,,,,,,,,,,,,,,,,,,,,,,,,,,,,,,,,,,ZPRAQF,train_x,blue_star,bottom_left,2025-09-05_17h29.30.823,HideSeek_v1,2022.2.5,59.99448049370354,
,,,,,,,,,,,,,,,0,0,0,0,8,0,8,0,,,,,,,,,,,,,,,,,,,,,,,,,,,,,,,conditions/schedules/train_x_first/blue_star_00/bottom_left/instructions/Slide9.png,conditions/schedules/train_x_first/blue_star_00/bottom_left/instructions/Audio9.wav,477.76974399993196,477.7556187998969,9,"[2.850459299981594, 18.148223500000313, 17.16323479998391, 19.1854258000385, 4.555508199962787, 5.370316099957563, 5.6315761000150815, 11.350634000031278, 5.789844600018114]","[0.00022060004994273186, 0.04902909998781979, 0.0002145000034943223, 0.01503679994493723, 0.014617699896916747, 0.06467730004806072, 0.0376535999821499, 0.06780520000029355, 5.789853199967183]",0,,,,,,,,,,,,,,,,,,,,,,,,,,,,,,,,,,,,,,,,,,,,,,,,,,,,,,,,,,,,,,,,,,,,,,,,,,,,,,,,,,,,,,,,,,,,,,,,,,,,,,,,,,,,,,,,,,,,,,,,,,,,ZPRAQF,train_x,blue_star,bottom_left,2025-09-05_17h29.30.823,HideSeek_v1,2022.2.5,59.99448049370354,
,,,,,,,,,,,,,,,0,0,0,0,9,0,9,0,,,,,,,,,,,,,,,,,,,,,,,,,,,,,,,conditions/schedules/train_x_first/blue_star_00/bottom_left/instructions/Slide10.png,conditions/schedules/train_x_first/blue_star_00/bottom_left/instructions/Audio10.wav,483.602953900001,483.5942861999152,10,"[2.850459299981594, 18.148223500000313, 17.16323479998391, 19.1854258000385, 4.555508199962787, 5.370316099957563, 5.6315761000150815, 11.350634000031278, 5.789844600018114, 6.644274600083008]","[0.00022060004994273186, 0.04902909998781979, 0.0002145000034943223, 0.01503679994493723, 0.014617699896916747, 0.06467730004806072, 0.0376535999821499, 0.06780520000029355, 0.10548840009141713, 6.644283200032078]",0,,,,,,,,,,,,,,,,,,,,,,,,,,,,,,,,,,,,,,,,,,,,,,,,,,,,,,,,,,,,,,,,,,,,,,,,,,,,,,,,,,,,,,,,,,,,,,,,,,,,,,,,,,,,,,,,,,,,,,,,,,,,ZPRAQF,train_x,blue_star,bottom_left,2025-09-05_17h29.30.823,HideSeek_v1,2022.2.5,59.99448049370354,
,,,,,,,,,,,,,,,0,0,0,0,10,0,10,0,,,,,,,,,,,,,,,,,,,,,,,,,,,,,,,conditions/schedules/train_x_first/blue_star_00/bottom_left/instructions/Slide11.png,conditions/schedules/train_x_first/blue_star_00/bottom_left/instructions/Audio11.wav,490.30205919989385,490.2994586999528,11,"[2.850459299981594, 18.148223500000313, 17.16323479998391, 19.1854258000385, 4.555508199962787, 5.370316099957563, 5.6315761000150815, 11.350634000031278, 5.789844600018114, 6.644274600083008, 9.169486799975857]","[0.00022060004994273186, 0.04902909998781979, 0.0002145000034943223, 0.01503679994493723, 0.014617699896916747, 0.06467730004806072, 0.0376535999821499, 0.06780520000029355, 0.10548840009141713, 0.048057999927550554, 9.169494800036773]",0,,,,,,,,,,,,,,,,,,,,,,,,,,,,,,,,,,,,,,,,,,,,,,,,,,,,,,,,,,,,,,,,,,,,,,,,,,,,,,,,,,,,,,,,,,,,,,,,,,,,,,,,,,,,,,,,,,,,,,,,,,,,ZPRAQF,train_x,blue_star,bottom_left,2025-09-05_17h29.30.823,HideSeek_v1,2022.2.5,59.99448049370354,
,,,,,,,,,,,,,,,0,0,0,0,11,0,11,0,,,,,,,,,,,,,,,,,,,,,,,,,,,,,,,conditions/schedules/train_x_first/blue_star_00/bottom_left/instructions/Slide12.png,conditions/schedules/train_x_first/blue_star_00/bottom_left/instructions/Audio12.wav,499.53104109992273,499.5238204999594,12,"[2.850459299981594, 18.148223500000313, 17.16323479998391, 19.1854258000385, 4.555508199962787, 5.370316099957563, 5.6315761000150815, 11.350634000031278, 5.789844600018114, 6.644274600083008, 9.169486799975857, 12.667913099983707]","[0.00022060004994273186, 0.04902909998781979, 0.0002145000034943223, 0.01503679994493723, 0.014617699896916747, 0.06467730004806072, 0.0376535999821499, 0.06780520000029355, 0.10548840009141713, 0.048057999927550554, 0.074228800018318, 12.667922000051476]",0,,,,,,,,,,,,,,,,,,,,,,,,,,,,,,,,,,,,,,,,,,,,,,,,,,,,,,,,,,,,,,,,,,,,,,,,,,,,,,,,,,,,,,,,,,,,,,,,,,,,,,,,,,,,,,,,,,,,,,,,,,,,ZPRAQF,train_x,blue_star,bottom_left,2025-09-05_17h29.30.823,HideSeek_v1,2022.2.5,59.99448049370354,
1,4,0,9,0,5,0,11,2,instr_dim1_1,,,,,,0,0,0,0,,,,,0,0,0,0,,,,,,,,,,,,,,,,,,,,,,,,,,,,,,,,,,,,,stimuli/alien_stimuli/11.png,conditions/schedules/train_x_first/blue_star_00/bottom_left/inputInstr_1.xlsx,stimuli/alien_stimuli/11.png,512.3004893999314,512.3004893999314,512.3004893999314,512.3004893999314,512.3010153998389,return,13.907930299988948,"[-0.16, -0.08, 0, 0.08, 0.16, 0.24, 0.32, 0.4, 0.48, 0.56]","[-0.4, -0.32, -0.24, -0.16, -0.08, 0, 0.08, 0.16, 0.24, 0.32]",0,0,9,4,0.0,0.4,526.3695587998955,526.3695587998955,526.3695587998955,526.3695587998955,526.3695587998955,526.3695587998955,526.3695587998955,526.3624018998352,8.257680500042625,return,8.090599599992856,stimuli/alien_stimuli/11.png,11,4,1,,,,,,,,,,,,,,,,,,,,,,,,,,,,,,,,,,,,,,,,,,,,,,,,,,,,,,,,,,,,,,,,,,,,,,,,,,,,,,,,,,,,,,,,,ZPRAQF,train_x,blue_star,bottom_left,2025-09-05_17h29.30.823,HideSeek_v1,2022.2.5,59.99448049370354,
,,,,,,,,,,,30,,,,0,0,0,0,,,,,,,,,,,,,,,,,,,,,,,,,,,,,,,,,,,,,,,,,,,,,,,,,,,,,,,,,,,,,,,,,,,,,,,,,,,,,,21,0.7,0,0,99,1,30,0,conditions/schedules/train_x_first/blue_star_00/bottom_left/inputTrain_1.1.xlsx,99,1,1,1,0,,,,,,,,,,,,,,,,,,,,,,,,,,,,,,,,,,,,,,,,,,,,,,,,,,,,,,,,,,,,,,,,,,,,,,,,,,,ZPRAQF,train_x,blue_star,bottom_left,2025-09-05_17h29.30.823,HideSeek_v1,2022.2.5,59.99448049370354,
,,,,,,,,,,,,,,,1,0,1,0,0,0,0,0,,,,,,,,,,,,,,,,,,,,,,,,,,,,,,,conditions/schedules/train_x_first/blue_star_00/bottom_left/instructions/Slide13.png,conditions/schedules/train_x_first/blue_star_00/bottom_left/instructions/Audio13.wav,534.6227614999516,534.6192993998528,13,"[2.850459299981594, 18.148223500000313, 17.16323479998391, 19.1854258000385, 4.555508199962787, 5.370316099957563, 5.6315761000150815, 11.350634000031278, 5.789844600018114, 6.644274600083008, 9.169486799975857, 12.667913099983707, 20.02763689996209]","[0.00022060004994273186, 0.04902909998781979, 0.0002145000034943223, 0.01503679994493723, 0.014617699896916747, 0.06467730004806072, 0.0376535999821499, 0.06780520000029355, 0.10548840009141713, 0.048057999927550554, 0.074228800018318, 12.667922000051476, 20.027645999914967]",0,,,,,,,,,,,,,,,,,,,,,,,,,,,,,,,,,,,,,,,,,,,,,,,,,,,,,,,,,,,,,,,,,,,,,,,,,,,,,,,,,,,,,,,,,,,,,,,,,,,,,,,,,,,,,,,,,,,,,,,,,,,,ZPRAQF,train_x,blue_star,bottom_left,2025-09-05_17h29.30.823,HideSeek_v1,2022.2.5,59.99448049370354,
,,,,,,,,,,,,,,,1,0,1,0,1,0,1,0,,,,,,,,,,,,,,,,,,,,,,,,,,,,,,,conditions/schedules/train_x_first/blue_star_00/bottom_left/instructions/Slide14.png,conditions/schedules/train_x_first/blue_star_00/bottom_left/instructions/Audio14.wav,554.7171202999307,554.7026913999115,14,"[2.850459299981594, 18.148223500000313, 17.16323479998391, 19.1854258000385, 4.555508199962787, 5.370316099957563, 5.6315761000150815, 11.350634000031278, 5.789844600018114, 6.644274600083008, 9.169486799975857, 12.667913099983707, 20.02763689996209, 14.41275419993326]","[0.00022060004994273186, 0.04902909998781979, 0.0002145000034943223, 0.01503679994493723, 0.014617699896916747, 0.06467730004806072, 0.0376535999821499, 0.06780520000029355, 0.10548840009141713, 0.048057999927550554, 0.074228800018318, 12.667922000051476, 0.00021659990306943655, 14.412761599989608]",0,,,,,,,,,,,,,,,,,,,,,,,,,,,,,,,,,,,,,,,,,,,,,,,,,,,,,,,,,,,,,,,,,,,,,,,,,,,,,,,,,,,,,,,,,,,,,,,,,,,,,,,,,,,,,,,,,,,,,,,,,,,,ZPRAQF,train_x,blue_star,bottom_left,2025-09-05_17h29.30.823,HideSeek_v1,2022.2.5,59.99448049370354,
2,3,2,3,2,0,0,61,2,instr_dim1_1,,,,,,1,0,1,0,,,,,0,0,0,0,,,,,,,,,,,,,,,,,,,,,,,,,,,,,,,,,,,,,stimuli/alien_stimuli/61.png,conditions/schedules/train_x_first/blue_star_00/bottom_left/inputInstr_1.xlsx,stimuli/alien_stimuli/61.png,569.2340968999779,569.2340968999779,569.2340968999779,569.2340968999779,569.2315629998689,return,8.304173699929379,"[-0.16, -0.08, 0, 0.08, 0.16, 0.24, 0.32, 0.4, 0.48, 0.56]","[-0.4, -0.32, -0.24, -0.16, -0.08, 0, 0.08, 0.16, 0.24, 0.32]",2,2,3,3,0.0,0.0,577.6849078999367,577.6849078999367,577.6849078999367,577.6849078999367,577.6849078999367,577.6849078999367,577.6849078999367,577.6716379998485,12.61115150002297,return,12.447600699961185,stimuli/alien_stimuli/61.png,61,3,2,,,,,,,,,,,,,,,,,,,,,,,,,,,,,,,,,,,,,,,,,,,,,,,,,,,,,,,,,,,,,,,,,,,,,,,,,,,,,,,,,,,,,,,,,ZPRAQF,train_x,blue_star,bottom_left,2025-09-05_17h29.30.823,HideSeek_v1,2022.2.5,59.99448049370354,
,,,,,,,,,,,30,,,,1,0,1,0,,,,,,,,,,,,,,,,,,,,,,,,,,,,,,,,,,,,,,,,,,,,,,,,,,,,,,,,,,,,,,,,,,,,,,,,,,,,,,21,0.7,0,0,99,1,30,0,conditions/schedules/train_x_first/blue_star_00/bottom_left/inputTrain_1.1.xlsx,99,1,1,1,0,,,,,,,,,,,,,,,,,,,,,,,,,,,,,,,,,,,,,,,,,,,,,,,,,,,,,,,,,,,,,,,,,,,,,,,,,,,ZPRAQF,train_x,blue_star,bottom_left,2025-09-05_17h29.30.823,HideSeek_v1,2022.2.5,59.99448049370354,
,,,,,,,,,,,,,,,2,0,2,0,0,0,0,0,,,,,,,,,,,,,,,,,,,,,,,,,,,,,,,conditions/schedules/train_x_first/blue_star_00/bottom_left/instructions/Slide15.png,conditions/schedules/train_x_first/blue_star_00/bottom_left/instructions/Audio15.wav,590.3259716999019,590.3155269998824,15,"[2.850459299981594, 18.148223500000313, 17.16323479998391, 19.1854258000385, 4.555508199962787, 5.370316099957563, 5.6315761000150815, 11.350634000031278, 5.789844600018114, 6.644274600083008, 9.169486799975857, 12.667913099983707, 20.02763689996209, 14.41275419993326, 30.578935700003058]","[0.00022060004994273186, 0.04902909998781979, 0.0002145000034943223, 0.01503679994493723, 0.014617699896916747, 0.06467730004806072, 0.0376535999821499, 0.06780520000029355, 0.10548840009141713, 0.048057999927550554, 0.074228800018318, 12.667922000051476, 0.00021659990306943655, 14.412761599989608, 30.578943599946797]",0,,,,,,,,,,,,,,,,,,,,,,,,,,,,,,,,,,,,,,,,,,,,,,,,,,,,,,,,,,,,,,,,,,,,,,,,,,,,,,,,,,,,,,,,,,,,,,,,,,,,,,,,,,,,,,,,,,,,,,,,,,,,ZPRAQF,train_x,blue_star,bottom_left,2025-09-05_17h29.30.823,HideSeek_v1,2022.2.5,59.99448049370354,
,,,,,,,,,,,,,,,2,0,2,0,1,0,1,0,,,,,,,,,,,,,,,,,,,,,,,,,,,,,,,conditions/schedules/train_x_first/blue_star_00/bottom_left/instructions/Slide16.png,conditions/schedules/train_x_first/blue_star_00/bottom_left/instructions/Audio16.wav,620.9772158999695,620.9744229998905,16,"[2.850459299981594, 18.148223500000313, 17.16323479998391, 19.1854258000385, 4.555508199962787, 5.370316099957563, 5.6315761000150815, 11.350634000031278, 5.789844600018114, 6.644274600083008, 9.169486799975857, 12.667913099983707, 20.02763689996209, 14.41275419993326, 30.578935700003058, 21.562644099933095]","[0.00022060004994273186, 0.04902909998781979, 0.0002145000034943223, 0.01503679994493723, 0.014617699896916747, 0.06467730004806072, 0.0376535999821499, 0.06780520000029355, 0.10548840009141713, 0.048057999927550554, 0.074228800018318, 12.667922000051476, 0.00021659990306943655, 14.412761599989608, 0.04744999995455146, 21.562651499989443]",0,,,,,,,,,,,,,,,,,,,,,,,,,,,,,,,,,,,,,,,,,,,,,,,,,,,,,,,,,,,,,,,,,,,,,,,,,,,,,,,,,,,,,,,,,,,,,,,,,,,,,,,,,,,,,,,,,,,,,,,,,,,,ZPRAQF,train_x,blue_star,bottom_left,2025-09-05_17h29.30.823,HideSeek_v1,2022.2.5,59.99448049370354,
,2,1,5,1,3,0,31,,train_dim1_1,1,30,,,,2,0,2,0,,,,,,,,,0,0,0,0,0,0,0,0,0,0,0,0,,,,,,,,,,,,,,,,,,,,,,,,,stimuli/alien_stimuli/31.png,,,,,,,,,,,,,,,,,,,,,,,,,,,,,,,,,,,,,,,30,,,,,,,,642.6413747998886,642.6413747998886,642.6413747998886,642.6413747998886,642.6413747998886,right,48.64787680003792,0,0,0,99,0.08,-0.32,right,48.5512131000869,,,,,,,,,,,,,,,,,,,,,,,,,,,,,,,,,,,,,,,,,,,,,,,,,,,,,,,,,,,,ZPRAQF,train_x,blue_star,bottom_left,2025-09-05_17h29.30.823,HideSeek_v1,2022.2.5,59.99448049370354,
,2,1,5,1,3,0,31,,train_dim1_1,1,30,,,,2,0,2,0,,,,,,,,,0,0,0,0,0,0,0,0,1,0,1,0,,,,,,,,,,,,,,,,,,,,,,,,,,,,,,,,,,,,,,,,,,,,,,,,,,,,,,,,,,,,,,,,30,,,,,,,,691.2944152998971,691.2944152998971,691.2944152998971,691.2944152998971,691.2944152998971,right,1.9928587999893352,0,0,0,99,0.16,-0.32,right,1.8965790999354795,,,,,,,,,,,,,,,,,,,,,,,,,,,,,,,,,,,,,,,,,,,,,,,,,,,,,,,,,,,,ZPRAQF,train_x,blue_star,bottom_left,2025-09-05_17h29.30.823,HideSeek_v1,2022.2.5,59.99448049370354,
,2,1,5,1,3,0,31,,train_dim1_1,1,30,,,,2,0,2,0,,,,,,,,,0,0,0,0,0,0,0,0,2,0,2,0,,,,,,,,,,,,,,,,,,,,,,,,,,,,,,,,,,,,,,,,,,,,,,,,,,,,,,,,,,,,,,,,30,,,,,,,,693.2821945999749,693.2821945999749,693.2821945999749,693.2821945999749,693.2821945999749,right,1.2273329000454396,0,0,0,99,0.24,-0.32,right,1.1533776000142097,,,,,,,,,,,,,,,,,,,,,,,,,,,,,,,,,,,,,,,,,,,,,,,,,,,,,,,,,,,,ZPRAQF,train_x,blue_star,bottom_left,2025-09-05_17h29.30.823,HideSeek_v1,2022.2.5,59.99448049370354,
,2,1,5,1,3,0,31,,train_dim1_1,1,30,,,,2,0,2,0,,,,,,,,,0,0,0,0,0,0,0,0,3,0,3,0,,,,,,,,,,,,,,,,,,,,,,,,,,,,,,,,,,,,,,,,,,,,,,,,,,,,,,,,,,,,,,,,30,,,,,,,,694.5188239999115,694.5188239999115,694.5188239999115,694.5188239999115,694.5188239999115,right,0.9082827999955043,0,0,0,99,0.32,-0.32,right,0.8202224000124261,,,,,,,,,,,,,,,,,,,,,,,,,,,,,,,,,,,,,,,,,,,,,,,,,,,,,,,,,,,,ZPRAQF,train_x,blue_star,bottom_left,2025-09-05_17h29.30.823,HideSeek_v1,2022.2.5,59.99448049370354,
,2,1,5,1,3,0,31,,train_dim1_1,1,30,,,,2,0,2,0,,,,,,,,,0,0,0,0,0,0,0,0,4,0,4,0,,,,,,,,,,,,,,,,,,,,,,,,,,,,,,,,,,,,,,,,,,,,,,,,,,,,,,,,,,,,,,,,30,,,,,,,,695.4346949999453,695.4346949999453,695.4346949999453,695.4346949999453,695.4346949999453,return,6.830783200100996,0,1,0,0,0.32,-0.32,return,6.753107899916358,0,4,0.32,-0.32,,,,,,,,,,,,,,,,,,,,,,,,,,,,,,,,,,,,,,,,,,,,,,,,,,,,,,,,ZPRAQF,train_x,blue_star,bottom_left,2025-09-05_17h29.30.823,HideSeek_v1,2022.2.5,59.99448049370354,
,2,4,7,4,5,0,11,,train_dim1_1,2,30,,,,2,0,2,0,,,,,,,,,0,0,0,0,0,1,1,1,0,0,0,0,,,,,,,,,,,,,,,,,,,,,,,,,stimuli/alien_stimuli/11.png,,,,,,,,,,,,,,,,,,,,,,,,,,,,,stimuli/alien_stimuli/31.png,31,2,3,,,,,,,30,,,,,,,,718.1036046999507,718.1036046999507,718.1036046999507,718.1036046999507,718.1036046999507,right,11.462742600007914,0,1,0,99,0.08,-0.08,right,11.357035900000483,,,,,716.5203242999269,718.1036046999507,0.24,-0.32,0.0,0.24,-0.32,0.24,0.12,0.24,-0.32,703.8423715999816,703.8423715999816,703.8423715999816,703.8423715999816,703.8423715999816,703.8423715999816,703.8423715999816,703.8423715999816,703.8264298998752,12.79645350005012,return,12.662365900003351,,,,,,,,,,,,,,,,,,,,,,,,,,,,,,,,,ZPRAQF,train_x,blue_star,bottom_left,2025-09-05_17h29.30.823,HideSeek_v1,2022.2.5,59.99448049370354,
,2,4,7,4,5,0,11,,train_dim1_1,2,30,,,,2,0,2,0,,,,,,,,,0,0,0,0,0,1,1,1,1,0,1,0,,,,,,,,,,,,,,,,,,,,,,,,,,,,,,,,,,,,,,,,,,,,,,,,,,,,,,,,,,,,,,,,30,,,,,,,,729.5608376999153,729.5608376999153,729.5608376999153,729.5608376999153,729.5608376999153,right,0.7600243999622762,0,1,0,99,0.16,-0.08,right,0.6661662000697106,,,,,,,,,,,,,,,,,,,,,,,,,,,,,,,,,,,,,,,,,,,,,,,,,,,,,,,,,,,,ZPRAQF,train_x,blue_star,bottom_left,2025-09-05_17h29.30.823,HideSeek_v1,2022.2.5,59.99448049370354,
,2,4,7,4,5,0,11,,train_dim1_1,2,30,,,,2,0,2,0,,,,,,,,,0,0,0,0,0,1,1,1,2,0,2,0,,,,,,,,,,,,,,,,,,,,,,,,,,,,,,,,,,,,,,,,,,,,,,,,,,,,,,,,,,,,,,,,30,,,,,,,,730.3158267999534,730.3158267999534,730.3158267999534,730.3158267999534,730.3158267999534,right,0.6269886998925358,0,1,0,99,0.24,-0.08,right,0.5493297999491915,,,,,,,,,,,,,,,,,,,,,,,,,,,,,,,,,,,,,,,,,,,,,,,,,,,,,,,,,,,,ZPRAQF,train_x,blue_star,bottom_left,2025-09-05_17h29.30.823,HideSeek_v1,2022.2.5,59.99448049370354,
,2,4,7,4,5,0,11,,train_dim1_1,2,30,,,,2,0,2,0,,,,,,,,,0,0,0,0,0,1,1,1,3,0,3,0,,,,,,,,,,,,,,,,,,,,,,,,,,,,,,,,,,,,,,,,,,,,,,,,,,,,,,,,,,,,,,,,30,,,,,,,,730.9527830999577,730.9527830999577,730.9527830999577,730.9527830999577,730.9527830999577,right,0.642922900035046,0,1,0,99,0.32,-0.08,right,0.5588672999292612,,,,,,,,,,,,,,,,,,,,,,,,,,,,,,,,,,,,,,,,,,,,,,,,,,,,,,,,,,,,ZPRAQF,train_x,blue_star,bottom_left,2025-09-05_17h29.30.823,HideSeek_v1,2022.2.5,59.99448049370354,
,2,4,7,4,5,0,11,,train_dim1_1,2,30,,,,2,0,2,0,,,,,,,,,0,0,0,0,0,1,1,1,4,0,4,0,,,,,,,,,,,,,,,,,,,,,,,,,,,,,,,,,,,,,,,,,,,,,,,,,,,,,,,,,,,,,,,,30,,,,,,,,731.5998660998885,731.5998660998885,731.5998660998885,731.5998660998885,731.5998660998885,right,0.7103790000546724,0,1,0,99,0.4,-0.08,right,0.626746500027366,,,,,,,,,,,,,,,,,,,,,,,,,,,,,,,,,,,,,,,,,,,,,,,,,,,,,,,,,,,,ZPRAQF,train_x,blue_star,bottom_left,2025-09-05_17h29.30.823,HideSeek_v1,2022.2.5,59.99448049370354,
,2,4,7,4,5,0,11,,train_dim1_1,2,30,,,,2,0,2,0,,,,,,,,,0,0,0,0,0,1,1,1,5,0,5,0,,,,,,,,,,,,,,,,,,,,,,,,,,,,,,,,,,,,,,,,,,,,,,,,,,,,,,,,,,,,,,,,30,,,,,,,,732.3182716999436,732.3182716999436,732.3182716999436,732.3182716999436,732.3182716999436,right,0.5596020000521094,0,1,0,99,0.48000000000000004,-0.08,right,0.46658929996192455,,,,,,,,,,,,,,,,,,,,,,,,,,,,,,,,,,,,,,,,,,,,,,,,,,,,,,,,,,,,ZPRAQF,train_x,blue_star,bottom_left,2025-09-05_17h29.30.823,HideSeek_v1,2022.2.5,59.99448049370354,
,2,4,7,4,5,0,11,,train_dim1_1,2,30,,,,2,0,2,0,,,,,,,,,0,0,0,0,0,1,1,1,6,0,6,0,,,,,,,,,,,,,,,,,,,,,,,,,,,,,,,,,,,,,,,,,,,,,,,,,,,,,,,,,,,,,,,,30,,,,,,,,732.8858758999268,732.8858758999268,732.8858758999268,732.8858758999268,732.8858758999268,return,0.8937641000375152,0,1,0,0,0.48000000000000004,-0.08,return,0.8111112000187859,0,10,0.48000000000000004,-0.08,,,,,,,,,,,,,,,,,,,,,,,,,,,,,,,,,,,,,,,,,,,,,,,,,,,,,,,,ZPRAQF,train_x,blue_star,bottom_left,2025-09-05_17h29.30.823,HideSeek_v1,2022.2.5,59.99448049370354,
,4,4,8,4,4,0,21,,train_dim1_1,3,30,,,,2,0,2,0,,,,,,,,,0,0,0,0,0,2,2,2,0,0,0,0,,,,,,,,,,,,,,,,,,,,,,,,,stimuli/alien_stimuli/21.png,,,,,,,,,,,,,,,,,,,,,,,,,,,,,stimuli/alien_stimuli/11.png,11,2,4,,,,,,,30,,,,,,,,745.1306738998974,745.1306738998974,745.1306738998974,745.1306738998974,745.1306738998974,right,16.22753030003514,0,1,0,99,0.24,-0.08,right,16.137318700086325,,,,,743.5595735999523,745.1306738998974,0.4,-0.08,0.0,0.4,-0.08,0.4,0.2,0.4,-0.08,735.3662941999501,735.3662941999501,735.3662941999501,735.3662941999501,735.3662941999501,735.3662941999501,735.3662941999501,735.3662941999501,735.3529891998274,8.325308799976483,return,8.163279399974272,,,,,,,,,,,,,,,,,,,,,,,,,,,,,,,,,ZPRAQF,train_x,blue_star,bottom_left,2025-09-05_17h29.30.823,HideSeek_v1,2022.2.5,59.99448049370354,
,4,4,8,4,4,0,21,,train_dim1_1,3,30,,,,2,0,2,0,,,,,,,,,0,0,0,0,0,2,2,2,1,0,1,0,,,,,,,,,,,,,,,,,,,,,,,,,,,,,,,,,,,,,,,,,,,,,,,,,,,,,,,,,,,,,,,,30,,,,,,,,761.3634028999368,761.3634028999368,761.3634028999368,761.3634028999368,761.3634028999368,right,1.0934308000141755,0,1,0,99,0.32,-0.08,right,1.007755700033158,,,,,,,,,,,,,,,,,,,,,,,,,,,,,,,,,,,,,,,,,,,,,,,,,,,,,,,,,,,,ZPRAQF,train_x,blue_star,bottom_left,2025-09-05_17h29.30.823,HideSeek_v1,2022.2.5,59.99448049370354,
,4,4,8,4,4,0,21,,train_dim1_1,3,30,,,,2,0,2,0,,,,,,,,,0,0,0,0,0,2,2,2,2,0,2,0,,,,,,,,,,,,,,,,,,,,,,,,,,,,,,,,,,,,,,,,,,,,,,,,,,,,,,,,,,,,,,,,30,,,,,,,,762.4591363999061,762.4591363999061,762.4591363999061,762.4591363999061,762.4591363999061,right,2.345041200052947,0,1,0,99,0.4,-0.08,right,2.2635995999444276,,,,,,,,,,,,,,,,,,,,,,,,,,,,,,,,,,,,,,,,,,,,,,,,,,,,,,,,,,,,ZPRAQF,train_x,blue_star,bottom_left,2025-09-05_17h29.30.823,HideSeek_v1,2022.2.5,59.99448049370354,
,4,4,8,4,4,0,21,,train_dim1_1,3,30,,,,2,0,2,0,,,,,,,,,0,0,0,0,0,2,2,2,3,0,3,0,,,,,,,,,,,,,,,,,,,,,,,,,,,,,,,,,,,,,,,,,,,,,,,,,,,,,,,,,,,,,,,,30,,,,,,,,764.8123437999748,764.8123437999748,764.8123437999748,764.8123437999748,764.8123437999748,right,1.1773490000050515,0,1,0,99,0.48000000000000004,-0.08,right,1.0986985999625176,,,,,,,,,,,,,,,,,,,,,,,,,,,,,,,,,,,,,,,,,,,,,,,,,,,,,,,,,,,,ZPRAQF,train_x,blue_star,bottom_left,2025-09-05_17h29.30.823,HideSeek_v1,2022.2.5,59.99448049370354,
,4,4,8,4,4,0,21,,train_dim1_1,3,30,,,,2,0,2,0,,,,,,,,,0,0,0,0,0,2,2,2,4,0,4,0,,,,,,,,,,,,,,,,,,,,,,,,,,,,,,,,,,,,,,,,,,,,,,,,,,,,,,,,,,,,,,,,30,,,,,,,,765.9966335999779,765.9966335999779,765.9966335999779,765.9966335999779,765.9966335999779,return,0.8432254999643192,1,0,0,1,0.48000000000000004,-0.08,return,0.7546714000636712,0,14,0.48000000000000004,-0.08,,,,,,,,,,,,,,,,,,,,,,,,,,,,,,,,,,,,,,,,,,,,,,,,,,,,,,,,ZPRAQF,train_x,blue_star,bottom_left,2025-09-05_17h29.30.823,HideSeek_v1,2022.2.5,59.99448049370354,
,2,3,3,3,1,0,51,,train_dim1_1,4,30,,,,2,0,2,0,,,,,,,,,0,0,0,0,0,3,3,3,0,0,0,0,,,,,,,,,,,,,,,,,,,,,,,,,stimuli/alien_stimuli/51.png,,,,,,,,,,,,,,,,,,,,,,,,,,,,,stimuli/alien_stimuli/21.png,21,4,5,,,,,,,30,,,,,,,,773.9490803999361,773.9490803999361,773.9490803999361,773.9490803999361,773.9490803999361,return,14.879737499984913,1,1,0,0,0,-0.16,return,14.793092599953525,0,14,0,-0.16,772.3832401999971,773.9490803999361,0.48,-0.08,0.0,0.32,-0.08,0.48,0.32,0.48,-0.08,768.432134399889,768.432134399889,768.432134399889,768.432134399889,768.432134399889,768.432134399889,768.432134399889,768.432134399889,768.4131898998982,4.088717199978419,return,3.9284048000117764,,,,,,,,,,,,,,,,,,,,,,,,,,,,,,,,,ZPRAQF,train_x,blue_star,bottom_left,2025-09-05_17h29.30.823,HideSeek_v1,2022.2.5,59.99448049370354,
,0,2,0,2,0,0,61,,train_dim1_1,5,30,,,,2,0,2,0,,,,,,,,,0,0,0,0,0,4,4,4,0,0,0,0,,,,,,,,,,,,,,,,,,,,,,,,,stimuli/alien_stimuli/61.png,,,,,,,,,,,,,,,,,,,,,,,,,,,,,stimuli/alien_stimuli/51.png,51,2,6,,,,,,,30,,,,,,,,795.0306627999526,795.0306627999526,795.0306627999526,795.0306627999526,795.0306627999526,right,3.138024299987592,1,1,0,99,-0.08,-0.24,right,3.0452542999992147,,,,,793.4679824999766,795.0306627999526,0.08,-0.16,0.0,0.08,-0.16,0.08,0.04,0.08,-0.16,790.4138482999988,790.4138482999988,790.4138482999988,790.4138482999988,790.4138482999988,790.4138482999988,790.4138482999988,790.4138482999988,790.3984129998368,3.188954300014302,return,3.032385000027716,,,,,,,,,,,,,,,,,,,,,,,,,,,,,,,,,ZPRAQF,train_x,blue_star,bottom_left,2025-09-05_17h29.30.823,HideSeek_v1,2022.2.5,59.99448049370354,
,0,2,0,2,0,0,61,,train_dim1_1,5,30,,,,2,0,2,0,,,,,,,,,0,0,0,0,0,4,4,4,1,0,1,0,,,,,,,,,,,,,,,,,,,,,,,,,,,,,,,,,,,,,,,,,,,,,,,,,,,,,,,,,,,,,,,,30,,,,,,,,798.1726093000034,798.1726093000034,798.1726093000034,798.1726093000034,798.1726093000034,return,0.7898118000011891,1,1,0,0,-0.08,-0.24,return,0.7078078000340611,0,15,-0.08,-0.24,,,,,,,,,,,,,,,,,,,,,,,,,,,,,,,,,,,,,,,,,,,,,,,,,,,,,,,,ZPRAQF,train_x,blue_star,bottom_left,2025-09-05_17h29.30.823,HideSeek_v1,2022.2.5,59.99448049370354,
,0,0,4,0,4,0,21,,train_dim1_1,6,30,,,,2,0,2,0,,,,,,,,,0,0,0,0,0,5,5,5,0,0,0,0,,,,,,,,,,,,,,,,,,,,,,,,,stimuli/alien_stimuli/21.png,,,,,,,,,,,,,,,,,,,,,,,,,,,,,stimuli/alien_stimuli/61.png,61,0,7,,,,,,,30,,,,,,,,805.9776653998997,805.9776653998997,805.9776653998997,805.9776653998997,805.9776653998997,right,7.242561100050807,1,1,0,99,-0.08,-0.4,right,7.156193600036204,,,,,804.4100493999431,805.9776653998997,-0.16,-0.24,0.0,0.0,-0.24,-0.16,-0.16,-0.16,-0.24,800.5277218999108,800.5277218999108,800.5277218999108,800.5277218999108,800.5277218999108,800.5277218999108,800.5277218999108,800.5277218999108,800.5066107998603,3.9888242000015453,return,3.8512429000111297,,,,,,,,,,,,,,,,,,,,,,,,,,,,,,,,,ZPRAQF,train_x,blue_star,bottom_left,2025-09-05_17h29.30.823,HideSeek_v1,2022.2.5,59.99448049370354,
,0,0,4,0,4,0,21,,train_dim1_1,6,30,,,,2,0,2,0,,,,,,,,,0,0,0,0,0,5,5,5,1,0,1,0,,,,,,,,,,,,,,,,,,,,,,,,,,,,,,,,,,,,,,,,,,,,,,,,,,,,,,,,,,,,,,,,30,,,,,,,,813.2196710999124,813.2196710999124,813.2196710999124,813.2196710999124,813.2196710999124,right,0.7261019001016393,1,1,0,99,0.0,-0.4,right,0.6402458000229672,,,,,,,,,,,,,,,,,,,,,,,,,,,,,,,,,,,,,,,,,,,,,,,,,,,,,,,,,,,,ZPRAQF,train_x,blue_star,bottom_left,2025-09-05_17h29.30.823,HideSeek_v1,2022.2.5,59.99448049370354,
,0,0,4,0,4,0,21,,train_dim1_1,6,30,,,,2,0,2,0,,,,,,,,,0,0,0,0,0,5,5,5,2,0,2,0,,,,,,,,,,,,,,,,,,,,,,,,,,,,,,,,,,,,,,,,,,,,,,,,,,,,,,,,,,,,,,,,30,,,,,,,,813.9531438999111,813.9531438999111,813.9531438999111,813.9531438999111,813.9531438999111,right,0.7104077999247238,1,1,0,99,0.08,-0.4,right,0.6200529000489041,,,,,,,,,,,,,,,,,,,,,,,,,,,,,,,,,,,,,,,,,,,,,,,,,,,,,,,,,,,,ZPRAQF,train_x,blue_star,bottom_left,2025-09-05_17h29.30.823,HideSeek_v1,2022.2.5,59.99448049370354,
,0,0,4,0,4,0,21,,train_dim1_1,6,30,,,,2,0,2,0,,,,,,,,,0,0,0,0,0,5,5,5,3,0,3,0,,,,,,,,,,,,,,,,,,,,,,,,,,,,,,,,,,,,,,,,,,,,,,,,,,,,,,,,,,,,,,,,30,,,,,,,,814.6715902999276,814.6715902999276,814.6715902999276,814.6715902999276,814.6715902999276,right,0.6420166000025347,1,1,0,99,0.16,-0.4,right,0.5621138999704272,,,,,,,,,,,,,,,,,,,,,,,,,,,,,,,,,,,,,,,,,,,,,,,,,,,,,,,,,,,,ZPRAQF,train_x,blue_star,bottom_left,2025-09-05_17h29.30.823,HideSeek_v1,2022.2.5,59.99448049370354,
,0,0,4,0,4,0,21,,train_dim1_1,6,30,,,,2,0,2,0,,,,,,,,,0,0,0,0,0,5,5,5,4,0,4,0,,,,,,,,,,,,,,,,,,,,,,,,,,,,,,,,,,,,,,,,,,,,,,,,,,,,,,,,,,,,,,,,30,,,,,,,,815.3200007999549,815.3200007999549,815.3200007999549,815.3200007999549,815.3200007999549,return,0.9435371999861673,2,0,0,1,0.16,-0.4,return,0.8636947999475524,0,19,0.16,-0.4,,,,,,,,,,,,,,,,,,,,,,,,,,,,,,,,,,,,,,,,,,,,,,,,,,,,,,,,ZPRAQF,train_x,blue_star,bottom_left,2025-09-05_17h29.30.823,HideSeek_v1,2022.2.5,59.99448049370354,
,3,0,3,0,0,0,61,,train_dim1_1,7,30,,,,2,0,2,0,,,,,,,,,0,0,0,0,0,6,6,6,0,0,0,0,,,,,,,,,,,,,,,,,,,,,,,,,stimuli/alien_stimuli/61.png,,,,,,,,,,,,,,,,,,,,,,,,,,,,,stimuli/alien_stimuli/21.png,21,0,8,,,,,,,30,,,,,,,,822.3848662999226,822.3848662999226,822.3848662999226,822.3848662999226,822.3848662999226,right,3.322823900030926,2,0,0,99,0.16,-0.4,right,3.2314594000345096,,,,,820.8234799999045,822.3848662999226,0.16,-0.4,0.0,0.32,-0.4,0.16,0.0,0.16,-0.4,817.8541725999676,817.8541725999676,817.8541725999676,817.8541725999676,817.8541725999676,817.8541725999676,817.8541725999676,817.8541725999676,817.837591499812,3.104718300048262,return,2.940571299986914,,,,,,,,,,,,,,,,,,,,,,,,,,,,,,,,,ZPRAQF,train_x,blue_star,bottom_left,2025-09-05_17h29.30.823,HideSeek_v1,2022.2.5,59.99448049370354,
,3,0,3,0,0,0,61,,train_dim1_1,7,30,,,,2,0,2,0,,,,,,,,,0,0,0,0,0,6,6,6,1,0,1,0,,,,,,,,,,,,,,,,,,,,,,,,,,,,,,,,,,,,,,,,,,,,,,,,,,,,,,,,,,,,,,,,30,,,,,,,,825.7084432999836,825.7084432999836,825.7084432999836,825.7084432999836,825.7084432999836,return,0.8095491999993101,2,1,0,0,0.16,-0.4,return,0.726379600004293,0,20,0.16,-0.4,,,,,,,,,,,,,,,,,,,,,,,,,,,,,,,,,,,,,,,,,,,,,,,,,,,,,,,,ZPRAQF,train_x,blue_star,bottom_left,2025-09-05_17h29.30.823,HideSeek_v1,2022.2.5,59.99448049370354,
,0,4,3,4,3,0,31,,train_dim1_1,8,30,,,,2,0,2,0,,,,,,,,,0,0,0,0,0,7,7,7,0,0,0,0,,,,,,,,,,,,,,,,,,,,,,,,,stimuli/alien_stimuli/31.png,,,,,,,,,,,,,,,,,,,,,,,,,,,,,stimuli/alien_stimuli/61.png,61,3,9,,,,,,,30,,,,,,,,834.2836854999186,834.2836854999186,834.2836854999186,834.2836854999186,834.2836854999186,right,8.141126199974678,2,1,0,99,-0.08,-0.08,right,8.048835200024769,,,,,832.716852499987,834.2836854999186,0.08,-0.4,0.0,0.0,-0.4,0.08,0.08,0.08,-0.4,828.0859247999033,828.0859247999033,828.0859247999033,828.0859247999033,828.0859247999033,828.0859247999033,828.0859247999033,828.0859247999033,828.0793854999124,4.739539799978957,return,4.6121054999530315,,,,,,,,,,,,,,,,,,,,,,,,,,,,,,,,,ZPRAQF,train_x,blue_star,bottom_left,2025-09-05_17h29.30.823,HideSeek_v1,2022.2.5,59.99448049370354,
,0,4,3,4,3,0,31,,train_dim1_1,8,30,,,,2,0,2,0,,,,,,,,,0,0,0,0,0,7,7,7,1,0,1,0,,,,,,,,,,,,,,,,,,,,,,,,,,,,,,,,,,,,,,,,,,,,,,,,,,,,,,,,,,,,,,,,30,,,,,,,,842.4243162999628,842.4243162999628,842.4243162999628,842.4243162999628,842.4243162999628,right,0.759119400056079,2,1,0,99,0.0,-0.08,right,0.6826437999261543,,,,,,,,,,,,,,,,,,,,,,,,,,,,,,,,,,,,,,,,,,,,,,,,,,,,,,,,,,,,ZPRAQF,train_x,blue_star,bottom_left,2025-09-05_17h29.30.823,HideSeek_v1,2022.2.5,59.99448049370354,
,0,4,3,4,3,0,31,,train_dim1_1,8,30,,,,2,0,2,0,,,,,,,,,0,0,0,0,0,7,7,7,2,0,2,0,,,,,,,,,,,,,,,,,,,,,,,,,,,,,,,,,,,,,,,,,,,,,,,,,,,,,,,,,,,,,,,,30,,,,,,,,843.189234899939,843.189234899939,843.189234899939,843.189234899939,843.189234899939,right,0.943922400008887,2,1,0,99,0.08,-0.08,right,0.8547667999519035,,,,,,,,,,,,,,,,,,,,,,,,,,,,,,,,,,,,,,,,,,,,,,,,,,,,,,,,,,,,ZPRAQF,train_x,blue_star,bottom_left,2025-09-05_17h29.30.823,HideSeek_v1,2022.2.5,59.99448049370354,
,0,4,3,4,3,0,31,,train_dim1_1,8,30,,,,2,0,2,0,,,,,,,,,0,0,0,0,0,7,7,7,3,0,3,0,,,,,,,,,,,,,,,,,,,,,,,,,,,,,,,,,,,,,,,,,,,,,,,,,,,,,,,,,,,,,,,,30,,,,,,,,844.1410370999947,844.1410370999947,844.1410370999947,844.1410370999947,844.1410370999947,right,0.5930168000049889,2,1,0,99,0.16,-0.08,right,0.5112601999426261,,,,,,,,,,,,,,,,,,,,,,,,,,,,,,,,,,,,,,,,,,,,,,,,,,,,,,,,,,,,ZPRAQF,train_x,blue_star,bottom_left,2025-09-05_17h29.30.823,HideSeek_v1,2022.2.5,59.99448049370354,
,0,4,3,4,3,0,31,,train_dim1_1,8,30,,,,2,0,2,0,,,,,,,,,0,0,0,0,0,7,7,7,4,0,4,0,,,,,,,,,,,,,,,,,,,,,,,,,,,,,,,,,,,,,,,,,,,,,,,,,,,,,,,,,,,,,,,,30,,,,,,,,844.7445012999233,844.7445012999233,844.7445012999233,844.7445012999233,844.7445012999233,return,0.7246018999721855,2,1,0,0,0.16,-0.08,return,0.6375251000281423,0,24,0.16,-0.08,,,,,,,,,,,,,,,,,,,,,,,,,,,,,,,,,,,,,,,,,,,,,,,,,,,,,,,,ZPRAQF,train_x,blue_star,bottom_left,2025-09-05_17h29.30.823,HideSeek_v1,2022.2.5,59.99448049370354,
,1,0,2,0,1,0,51,,train_dim1_1,9,30,,,,2,0,2,0,,,,,,,,,0,0,0,0,0,8,8,8,0,0,0,0,,,,,,,,,,,,,,,,,,,,,,,,,stimuli/alien_stimuli/51.png,,,,,,,,,,,,,,,,,,,,,,,,,,,,,stimuli/alien_stimuli/31.png,31,0,10,,,,,,,30,,,,,,,,852.0596302999184,852.0596302999184,852.0596302999184,852.0596302999184,852.0596302999184,right,5.2422602999722585,2,1,0,99,0.0,-0.4,right,5.161948199965991,,,,,850.4982359999558,852.0596302999184,0.08,-0.08,0.0,0.24,-0.08,0.08,-0.04,0.08,-0.08,847.0510870999424,847.0510870999424,847.0510870999424,847.0510870999424,847.0510870999424,847.0510870999424,847.0510870999424,847.0510870999424,847.0289058998228,3.5712396999588236,return,3.4217079000081867,,,,,,,,,,,,,,,,,,,,,,,,,,,,,,,,,ZPRAQF,train_x,blue_star,bottom_left,2025-09-05_17h29.30.823,HideSeek_v1,2022.2.5,59.99448049370354,
,1,0,2,0,1,0,51,,train_dim1_1,9,30,,,,2,0,2,0,,,,,,,,,0,0,0,0,0,8,8,8,1,0,1,0,,,,,,,,,,,,,,,,,,,,,,,,,,,,,,,,,,,,,,,,,,,,,,,,,,,,,,,,,,,,,,,,30,,,,,,,,857.3089400999015,857.3089400999015,857.3089400999015,857.3089400999015,857.3089400999015,return,1.022265899926424,3,0,0,1,0.0,-0.4,return,0.9321260000579059,0,25,0.0,-0.4,,,,,,,,,,,,,,,,,,,,,,,,,,,,,,,,,,,,,,,,,,,,,,,,,,,,,,,,ZPRAQF,train_x,blue_star,bottom_left,2025-09-05_17h29.30.823,HideSeek_v1,2022.2.5,59.99448049370354,
,0,3,5,3,5,0,11,,train_dim1_1,10,30,,,,2,0,2,0,,,,,,,,,0,0,0,0,0,9,9,9,0,0,0,0,,,,,,,,,,,,,,,,,,,,,,,,,stimuli/alien_stimuli/11.png,,,,,,,,,,,,,,,,,,,,,,,,,,,,,stimuli/alien_stimuli/51.png,51,1,11,,,,,,,30,,,,,,,,865.4777238999959,865.4777238999959,865.4777238999959,865.4777238999959,865.4777238999959,right,7.574417400057428,3,0,0,99,-0.08,-0.16,right,7.478898299974389,,,,,863.9091882999055,865.4777238999959,0,-0.4,0.0,0.08,-0.4,0,-0.04,0,-0.4,859.9178502999712,859.9178502999712,859.9178502999712,859.9178502999712,859.9178502999712,859.9178502999712,859.9178502999712,859.9178502999712,859.9061428999063,4.122051000013016,return,3.959897499997169,,,,,,,,,,,,,,,,,,,,,,,,,,,,,,,,,ZPRAQF,train_x,blue_star,bottom_left,2025-09-05_17h29.30.823,HideSeek_v1,2022.2.5,59.99448049370354,
,0,3,5,3,5,0,11,,train_dim1_1,10,30,,,,2,0,2,0,,,,,,,,,0,0,0,0,0,9,9,9,1,0,1,0,,,,,,,,,,,,,,,,,,,,,,,,,,,,,,,,,,,,,,,,,,,,,,,,,,,,,,,,,,,,,,,,30,,,,,,,,873.0539543998893,873.0539543998893,873.0539543998893,873.0539543998893,873.0539543998893,right,0.6092751000542194,3,0,0,99,0.0,-0.16,right,0.5255710000637919,,,,,,,,,,,,,,,,,,,,,,,,,,,,,,,,,,,,,,,,,,,,,,,,,,,,,,,,,,,,ZPRAQF,train_x,blue_star,bottom_left,2025-09-05_17h29.30.823,HideSeek_v1,2022.2.5,59.99448049370354,
,0,3,5,3,5,0,11,,train_dim1_1,10,30,,,,2,0,2,0,,,,,,,,,0,0,0,0,0,9,9,9,2,0,2,0,,,,,,,,,,,,,,,,,,,,,,,,,,,,,,,,,,,,,,,,,,,,,,,,,,,,,,,,,,,,,,,,30,,,,,,,,873.6692815999268,873.6692815999268,873.6692815999268,873.6692815999268,873.6692815999268,right,0.6599857000401244,3,0,0,99,0.08,-0.16,right,0.5682217000285164,,,,,,,,,,,,,,,,,,,,,,,,,,,,,,,,,,,,,,,,,,,,,,,,,,,,,,,,,,,,ZPRAQF,train_x,blue_star,bottom_left,2025-09-05_17h29.30.823,HideSeek_v1,2022.2.5,59.99448049370354,
,0,3,5,3,5,0,11,,train_dim1_1,10,30,,,,2,0,2,0,,,,,,,,,0,0,0,0,0,9,9,9,3,0,3,0,,,,,,,,,,,,,,,,,,,,,,,,,,,,,,,,,,,,,,,,,,,,,,,,,,,,,,,,,,,,,,,,30,,,,,,,,874.3359868999105,874.3359868999105,874.3359868999105,874.3359868999105,874.3359868999105,right,0.6601618999848142,3,0,0,99,0.16,-0.16,right,0.574250900070183,,,,,,,,,,,,,,,,,,,,,,,,,,,,,,,,,,,,,,,,,,,,,,,,,,,,,,,,,,,,ZPRAQF,train_x,blue_star,bottom_left,2025-09-05_17h29.30.823,HideSeek_v1,2022.2.5,59.99448049370354,
,0,3,5,3,5,0,11,,train_dim1_1,10,30,,,,2,0,2,0,,,,,,,,,0,0,0,0,0,9,9,9,4,0,4,0,,,,,,,,,,,,,,,,,,,,,,,,,,,,,,,,,,,,,,,,,,,,,,,,,,,,,,,,,,,,,,,,30,,,,,,,,875.0038322999608,875.0038322999608,875.0038322999608,875.0038322999608,875.0038322999608,right,0.6427307000849396,3,0,0,99,0.24,-0.16,right,0.5605250999797136,,,,,,,,,,,,,,,,,,,,,,,,,,,,,,,,,,,,,,,,,,,,,,,,,,,,,,,,,,,,ZPRAQF,train_x,blue_star,bottom_left,2025-09-05_17h29.30.823,HideSeek_v1,2022.2.5,59.99448049370354,
,0,3,5,3,5,0,11,,train_dim1_1,10,30,,,,2,0,2,0,,,,,,,,,0,0,0,0,0,9,9,9,5,0,5,0,,,,,,,,,,,,,,,,,,,,,,,,,,,,,,,,,,,,,,,,,,,,,,,,,,,,,,,,,,,,,,,,30,,,,,,,,875.6548726999899,875.6548726999899,875.6548726999899,875.6548726999899,875.6548726999899,return,0.7598597999894992,4,0,0,1,0.24,-0.16,return,0.6677203999133781,0,30,0.24,-0.16,,,,,,,,,,,,,,,,,,,,,,,,,,,,,,,,,,,,,,,,,,,,,,,,,,,,,,,,ZPRAQF,train_x,blue_star,bottom_left,2025-09-05_17h29.30.823,HideSeek_v1,2022.2.5,59.99448049370354,
,2,2,5,2,3,0,31,,train_dim1_1,11,30,,,,2,0,2,0,,,,,,,,,0,0,0,0,0,10,10,10,0,0,0,0,,,,,,,,,,,,,,,,,,,,,,,,,stimuli/alien_stimuli/31.png,,,,,,,,,,,,,,,,,,,,,,,,,,,,,stimuli/alien_stimuli/11.png,11,0,12,,,,,,,30,,,,,,,,881.9556141999783,881.9556141999783,881.9556141999783,881.9556141999783,881.9556141999783,right,3.8278082000324503,4,0,0,99,0.08,-0.24,right,3.71955049992539,,,,,880.3563887999626,881.9556141999783,0.24,-0.16,0.0,0.4,-0.16,0.24,0.039999999999999994,0.24,-0.16,878.0021020999411,878.0021020999411,878.0021020999411,878.0021020999411,878.0021020999411,878.0021020999411,878.0021020999411,878.0021020999411,877.9879023998743,2.4871433000080287,return,2.334005199954845,,,,,,,,,,,,,,,,,,,,,,,,,,,,,,,,,ZPRAQF,train_x,blue_star,bottom_left,2025-09-05_17h29.30.823,HideSeek_v1,2022.2.5,59.99448049370354,
,2,2,5,2,3,0,31,,train_dim1_1,11,30,,,,2,0,2,0,,,,,,,,,0,0,0,0,0,10,10,10,1,0,1,0,,,,,,,,,,,,,,,,,,,,,,,,,,,,,,,,,,,,,,,,,,,,,,,,,,,,,,,,,,,,,,,,30,,,,,,,,885.7627601999557,885.7627601999557,885.7627601999557,885.7627601999557,885.7627601999557,right,0.5931867000181228,4,0,0,99,0.16,-0.24,right,0.5091023000422865,,,,,,,,,,,,,,,,,,,,,,,,,,,,,,,,,,,,,,,,,,,,,,,,,,,,,,,,,,,,ZPRAQF,train_x,blue_star,bottom_left,2025-09-05_17h29.30.823,HideSeek_v1,2022.2.5,59.99448049370354,
,2,2,5,2,3,0,31,,train_dim1_1,11,30,,,,2,0,2,0,,,,,,,,,0,0,0,0,0,10,10,10,2,0,2,0,,,,,,,,,,,,,,,,,,,,,,,,,,,,,,,,,,,,,,,,,,,,,,,,,,,,,,,,,,,,,,,,30,,,,,,,,886.3602212999249,886.3602212999249,886.3602212999249,886.3602212999249,886.3602212999249,right,0.5761612000642344,4,0,0,99,0.24,-0.24,right,0.5009272999595851,,,,,,,,,,,,,,,,,,,,,,,,,,,,,,,,,,,,,,,,,,,,,,,,,,,,,,,,,,,,ZPRAQF,train_x,blue_star,bottom_left,2025-09-05_17h29.30.823,HideSeek_v1,2022.2.5,59.99448049370354,
,2,2,5,2,3,0,31,,train_dim1_1,11,30,,,,2,0,2,0,,,,,,,,,0,0,0,0,0,10,10,10,3,0,3,0,,,,,,,,,,,,,,,,,,,,,,,,,,,,,,,,,,,,,,,,,,,,,,,,,,,,,,,,,,,,,,,,30,,,,,,,,886.9494607999222,886.9494607999222,886.9494607999222,886.9494607999222,886.9494607999222,right,0.5594531999668106,4,0,0,99,0.32,-0.24,right,0.47530879999976605,,,,,,,,,,,,,,,,,,,,,,,,,,,,,,,,,,,,,,,,,,,,,,,,,,,,,,,,,,,,ZPRAQF,train_x,blue_star,bottom_left,2025-09-05_17h29.30.823,HideSeek_v1,2022.2.5,59.99448049370354,
,2,2,5,2,3,0,31,,train_dim1_1,11,30,,,,2,0,2,0,,,,,,,,,0,0,0,0,0,10,10,10,4,0,4,0,,,,,,,,,,,,,,,,,,,,,,,,,,,,,,,,,,,,,,,,,,,,,,,,,,,,,,,,,,,,,,,,30,,,,,,,,887.5120392999379,887.5120392999379,887.5120392999379,887.5120392999379,887.5120392999379,return,0.5764349000528455,4,1,0,0,0.32,-0.24,return,0.4888795999577269,0,34,0.32,-0.24,,,,,,,,,,,,,,,,,,,,,,,,,,,,,,,,,,,,,,,,,,,,,,,,,,,,,,,,ZPRAQF,train_x,blue_star,bottom_left,2025-09-05_17h29.30.823,HideSeek_v1,2022.2.5,59.99448049370354,
,0,0,4,0,4,0,21,,train_dim1_1,12,30,,,,2,0,2,0,,,,,,,,,0,0,0,0,0,11,11,11,0,0,0,0,,,,,,,,,,,,,,,,,,,,,,,,,stimuli/alien_stimuli/21.png,,,,,,,,,,,,,,,,,,,,,,,,,,,,,stimuli/alien_stimuli/31.png,31,2,13,,,,,,,30,,,,,,,,895.4499913000036,895.4499913000036,895.4499913000036,895.4499913000036,895.4499913000036,right,5.308276199968532,4,1,0,99,-0.08,-0.4,right,5.21215499995742,,,,,893.8844642998884,895.4499913000036,0.24,-0.24,0.0,0.24,-0.24,0.24,0.12,0.24,-0.24,889.6770050999476,889.6770050999476,889.6770050999476,889.6770050999476,889.6770050999476,889.6770050999476,889.6770050999476,889.6770050999476,889.6640555998544,4.3388568999944255,return,4.180554400081746,,,,,,,,,,,,,,,,,,,,,,,,,,,,,,,,,ZPRAQF,train_x,blue_star,bottom_left,2025-09-05_17h29.30.823,HideSeek_v1,2022.2.5,59.99448049370354,
,0,0,4,0,4,0,21,,train_dim1_1,12,30,,,,2,0,2,0,,,,,,,,,0,0,0,0,0,11,11,11,1,0,1,0,,,,,,,,,,,,,,,,,,,,,,,,,,,,,,,,,,,,,,,,,,,,,,,,,,,,,,,,,,,,,,,,30,,,,,,,,900.7625205999939,900.7625205999939,900.7625205999939,900.7625205999939,900.7625205999939,right,0.5237906000111252,4,1,0,99,0.0,-0.4,right,0.4309626000467688,,,,,,,,,,,,,,,,,,,,,,,,,,,,,,,,,,,,,,,,,,,,,,,,,,,,,,,,,,,,ZPRAQF,train_x,blue_star,bottom_left,2025-09-05_17h29.30.823,HideSeek_v1,2022.2.5,59.99448049370354,
,0,0,4,0,4,0,21,,train_dim1_1,12,30,,,,2,0,2,0,,,,,,,,,0,0,0,0,0,11,11,11,2,0,2,0,,,,,,,,,,,,,,,,,,,,,,,,,,,,,,,,,,,,,,,,,,,,,,,,,,,,,,,,,,,,,,,,30,,,,,,,,901.2928040999686,901.2928040999686,901.2928040999686,901.2928040999686,901.2928040999686,right,0.4760036999359727,4,1,0,99,0.08,-0.4,right,0.38631279999390244,,,,,,,,,,,,,,,,,,,,,,,,,,,,,,,,,,,,,,,,,,,,,,,,,,,,,,,,,,,,ZPRAQF,train_x,blue_star,bottom_left,2025-09-05_17h29.30.823,HideSeek_v1,2022.2.5,59.99448049370354,
,0,0,4,0,4,0,21,,train_dim1_1,12,30,,,,2,0,2,0,,,,,,,,,0,0,0,0,0,11,11,11,3,0,3,0,,,,,,,,,,,,,,,,,,,,,,,,,,,,,,,,,,,,,,,,,,,,,,,,,,,,,,,,,,,,,,,,30,,,,,,,,901.7784416999202,901.7784416999202,901.7784416999202,901.7784416999202,901.7784416999202,right,1.1255360000068322,4,1,0,99,0.16,-0.4,right,1.037429800024256,,,,,,,,,,,,,,,,,,,,,,,,,,,,,,,,,,,,,,,,,,,,,,,,,,,,,,,,,,,,ZPRAQF,train_x,blue_star,bottom_left,2025-09-05_17h29.30.823,HideSeek_v1,2022.2.5,59.99448049370354,
,0,0,4,0,4,0,21,,train_dim1_1,12,30,,,,2,0,2,0,,,,,,,,,0,0,0,0,0,11,11,11,4,0,4,0,,,,,,,,,,,,,,,,,,,,,,,,,,,,,,,,,,,,,,,,,,,,,,,,,,,,,,,,,,,,,,,,30,,,,,,,,902.9095944999717,902.9095944999717,902.9095944999717,902.9095944999717,902.9095944999717,return,0.5101767000742257,5,0,0,1,0.16,-0.4,return,0.4302278000395745,0,38,0.16,-0.4,,,,,,,,,,,,,,,,,,,,,,,,,,,,,,,,,,,,,,,,,,,,,,,,,,,,,,,,ZPRAQF,train_x,blue_star,bottom_left,2025-09-05_17h29.30.823,HideSeek_v1,2022.2.5,59.99448049370354,
,0,4,1,4,1,0,51,,train_dim1_1,13,30,,,,2,0,2,0,,,,,,,,,0,0,0,0,0,12,12,12,0,0,0,0,,,,,,,,,,,,,,,,,,,,,,,,,stimuli/alien_stimuli/51.png,,,,,,,,,,,,,,,,,,,,,,,,,,,,,stimuli/alien_stimuli/21.png,21,0,14,,,,,,,30,,,,,,,,910.4769209999358,910.4769209999358,910.4769209999358,910.4769209999358,910.4769209999358,return,6.843182299984619,5,1,0,0,-0.16,-0.08,return,6.758249299949966,0,38,-0.16,-0.08,908.9134478999767,910.4769209999358,0.16,-0.4,0.0,0.32,-0.4,0.16,0.0,0.16,-0.4,905.0088143999455,905.0088143999455,905.0088143999455,905.0088143999455,905.0088143999455,905.0088143999455,905.0088143999455,905.0088143999455,904.9931997998152,4.039355400018394,return,3.885993400006555,,,,,,,,,,,,,,,,,,,,,,,,,,,,,,,,,ZPRAQF,train_x,blue_star,bottom_left,2025-09-05_17h29.30.823,HideSeek_v1,2022.2.5,59.99448049370354,
,4,3,9,3,5,0,11,,train_dim1_1,14,30,,,,2,0,2,0,,,,,,,,,0,0,0,0,0,13,13,13,0,0,0,0,,,,,,,,,,,,,,,,,,,,,,,,,stimuli/alien_stimuli/11.png,,,,,,,,,,,,,,,,,,,,,,,,,,,,,stimuli/alien_stimuli/51.png,51,0,15,,,,,,,30,,,,,,,,923.2560045999708,923.2560045999708,923.2560045999708,923.2560045999708,923.2560045999708,right,4.273852200014517,5,1,0,99,0.24,-0.16,right,4.184453199966811,,,,,921.6906736999517,923.2560045999708,-0.08,-0.08,0.0,0.08,-0.08,-0.08,-0.12,-0.08,-0.08,918.8952360999538,918.8952360999538,918.8952360999538,918.8952360999538,918.8952360999538,918.8952360999538,918.8952360999538,918.8952360999538,918.8719947999111,2.92070070002228,return,2.7707606999902055,,,,,,,,,,,,,,,,,,,,,,,,,,,,,,,,,ZPRAQF,train_x,blue_star,bottom_left,2025-09-05_17h29.30.823,HideSeek_v1,2022.2.5,59.99448049370354,
,4,3,9,3,5,0,11,,train_dim1_1,14,30,,,,2,0,2,0,,,,,,,,,0,0,0,0,0,13,13,13,1,0,1,0,,,,,,,,,,,,,,,,,,,,,,,,,,,,,,,,,,,,,,,,,,,,,,,,,,,,,,,,,,,,,,,,30,,,,,,,,927.5308683998883,927.5308683998883,927.5308683998883,927.5308683998883,927.5308683998883,right,0.5589350999798626,5,1,0,99,0.32,-0.16,right,0.47263430000748485,,,,,,,,,,,,,,,,,,,,,,,,,,,,,,,,,,,,,,,,,,,,,,,,,,,,,,,,,,,,ZPRAQF,train_x,blue_star,bottom_left,2025-09-05_17h29.30.823,HideSeek_v1,2022.2.5,59.99448049370354,
,4,3,9,3,5,0,11,,train_dim1_1,14,30,,,,2,0,2,0,,,,,,,,,0,0,0,0,0,13,13,13,2,0,2,0,,,,,,,,,,,,,,,,,,,,,,,,,,,,,,,,,,,,,,,,,,,,,,,,,,,,,,,,,,,,,,,,30,,,,,,,,928.0986970999511,928.0986970999511,928.0986970999511,928.0986970999511,928.0986970999511,right,1.1270904999691993,5,1,0,99,0.4,-0.16,right,1.0435349999461323,,,,,,,,,,,,,,,,,,,,,,,,,,,,,,,,,,,,,,,,,,,,,,,,,,,,,,,,,,,,ZPRAQF,train_x,blue_star,bottom_left,2025-09-05_17h29.30.823,HideSeek_v1,2022.2.5,59.99448049370354,
,4,3,9,3,5,0,11,,train_dim1_1,14,30,,,,2,0,2,0,,,,,,,,,0,0,0,0,0,13,13,13,3,0,3,0,,,,,,,,,,,,,,,,,,,,,,,,,,,,,,,,,,,,,,,,,,,,,,,,,,,,,,,,,,,,,,,,30,,,,,,,,929.2330320999026,929.2330320999026,929.2330320999026,929.2330320999026,929.2330320999026,right,0.6267103999853134,5,1,0,99,0.48000000000000004,-0.16,right,0.5391329999547452,,,,,,,,,,,,,,,,,,,,,,,,,,,,,,,,,,,,,,,,,,,,,,,,,,,,,,,,,,,,ZPRAQF,train_x,blue_star,bottom_left,2025-09-05_17h29.30.823,HideSeek_v1,2022.2.5,59.99448049370354,
,4,3,9,3,5,0,11,,train_dim1_1,14,30,,,,2,0,2,0,,,,,,,,,0,0,0,0,0,13,13,13,4,0,4,0,,,,,,,,,,,,,,,,,,,,,,,,,,,,,,,,,,,,,,,,,,,,,,,,,,,,,,,,,,,,,,,,30,,,,,,,,929.8691378999501,929.8691378999501,929.8691378999501,929.8691378999501,929.8691378999501,right,0.5435943999327719,5,1,0,99,0.56,-0.16,right,0.45188879990018904,,,,,,,,,,,,,,,,,,,,,,,,,,,,,,,,,,,,,,,,,,,,,,,,,,,,,,,,,,,,ZPRAQF,train_x,blue_star,bottom_left,2025-09-05_17h29.30.823,HideSeek_v1,2022.2.5,59.99448049370354,
,4,3,9,3,5,0,11,,train_dim1_1,14,30,,,,2,0,2,0,,,,,,,,,0,0,0,0,0,13,13,13,5,0,5,0,,,,,,,,,,,,,,,,,,,,,,,,,,,,,,,,,,,,,,,,,,,,,,,,,,,,,,,,,,,,,,,,30,,,,,,,,930.4157400999684,930.4157400999684,930.4157400999684,930.4157400999684,930.4157400999684,return,0.7270589000545442,6,0,0,1,0.56,-0.16,return,0.6337908999994397,0,43,0.56,-0.16,,,,,,,,,,,,,,,,,,,,,,,,,,,,,,,,,,,,,,,,,,,,,,,,,,,,,,,,ZPRAQF,train_x,blue_star,bottom_left,2025-09-05_17h29.30.823,HideSeek_v1,2022.2.5,59.99448049370354,
,4,2,4,2,0,0,61,,train_dim1_1,15,30,,,,2,0,2,0,,,,,,,,,0,0,0,0,0,14,14,14,0,0,0,0,,,,,,,,,,,,,,,,,,,,,,,,,stimuli/alien_stimuli/61.png,,,,,,,,,,,,,,,,,,,,,,,,,,,,,stimuli/alien_stimuli/11.png,11,4,16,,,,,,,30,,,,,,,,936.7162853999762,936.7162853999762,936.7162853999762,936.7162853999762,936.7162853999762,return,3.4709196999901906,7,0,0,1,0.16,-0.24,return,3.370217500021681,0,43,0.16,-0.24,935.1350124999881,936.7162853999762,0.56,-0.16,0.0,0.4,-0.16,0.56,0.36000000000000004,0.56,-0.16,932.727351599955,932.727351599955,932.727351599955,932.727351599955,932.727351599955,932.727351599955,932.727351599955,932.727351599955,932.7161102998303,2.5380955999717116,return,2.3903731999453157,,,,,,,,,,,,,,,,,,,,,,,,,,,,,,,,,ZPRAQF,train_x,blue_star,bottom_left,2025-09-05_17h29.30.823,HideSeek_v1,2022.2.5,59.99448049370354,
,3,3,4,3,1,0,51,,train_dim1_1,16,30,,,,2,0,2,0,,,,,,,,,0,0,0,0,0,15,15,15,0,0,0,0,,,,,,,,,,,,,,,,,,,,,,,,,stimuli/alien_stimuli/51.png,,,,,,,,,,,,,,,,,,,,,,,,,,,,,stimuli/alien_stimuli/61.png,61,4,17,,,,,,,30,,,,,,,,945.4979866999201,945.4979866999201,945.4979866999201,945.4979866999201,945.4979866999201,right,2.3566238000057638,7,0,0,99,0.16,-0.16,right,2.2591477000387385,,,,,943.9257732999977,945.4979866999201,0.16,-0.24,0.0,0.0,-0.24,0.16,0.16,0.16,-0.24,941.7363496999023,941.7363496999023,941.7363496999023,941.7363496999023,941.7363496999023,941.7363496999023,941.7363496999023,941.7363496999023,941.7241434998346,2.303662499994971,return,2.172665199963376,,,,,,,,,,,,,,,,,,,,,,,,,,,,,,,,,ZPRAQF,train_x,blue_star,bottom_left,2025-09-05_17h29.30.823,HideSeek_v1,2022.2.5,59.99448049370354,
,3,3,4,3,1,0,51,,train_dim1_1,16,30,,,,2,0,2,0,,,,,,,,,0,0,0,0,0,15,15,15,1,0,1,0,,,,,,,,,,,,,,,,,,,,,,,,,,,,,,,,,,,,,,,,,,,,,,,,,,,,,,,,,,,,,,,,30,,,,,,,,947.8466660999693,947.8466660999693,947.8466660999693,947.8466660999693,947.8466660999693,return,0.7925934999948367,8,0,0,1,0.16,-0.16,return,0.7143766999943182,0,44,0.16,-0.16,,,,,,,,,,,,,,,,,,,,,,,,,,,,,,,,,,,,,,,,,,,,,,,,,,,,,,,,ZPRAQF,train_x,blue_star,bottom_left,2025-09-05_17h29.30.823,HideSeek_v1,2022.2.5,59.99448049370354,
,2,4,6,4,4,0,21,,train_dim1_1,17,30,,,,2,0,2,0,,,,,,,,,0,0,0,0,0,16,16,16,0,0,0,0,,,,,,,,,,,,,,,,,,,,,,,,,stimuli/alien_stimuli/21.png,,,,,,,,,,,,,,,,,,,,,,,,,,,,,stimuli/alien_stimuli/51.png,51,3,18,,,,,,,30,,,,,,,,953.4803285999224,953.4803285999224,953.4803285999224,953.4803285999224,953.4803285999224,right,11.028892899979837,8,0,0,99,0.08,-0.08,right,10.916142000001855,,,,,951.8988275999436,953.4803285999224,0.16,-0.16,0.0,0.08,-0.16,0.16,0.12,0.16,-0.16,950.207571899984,950.207571899984,950.207571899984,950.207571899984,950.207571899984,950.207571899984,950.207571899984,950.207571899984,950.1976147999289,1.8035123000154272,return,1.6684327999828383,,,,,,,,,,,,,,,,,,,,,,,,,,,,,,,,,ZPRAQF,train_x,blue_star,bottom_left,2025-09-05_17h29.30.823,HideSeek_v1,2022.2.5,59.99448049370354,
,2,4,6,4,4,0,21,,train_dim1_1,17,30,,,,2,0,2,0,,,,,,,,,0,0,0,0,0,16,16,16,1,0,1,0,,,,,,,,,,,,,,,,,,,,,,,,,,,,,,,,,,,,,,,,,,,,,,,,,,,,,,,,,,,,,,,,30,,,,,,,,964.5017442998942,964.5017442998942,964.5017442998942,964.5017442998942,964.5017442998942,right,0.474952399963513,8,0,0,99,0.16,-0.08,right,0.38905640004668385,,,,,,,,,,,,,,,,,,,,,,,,,,,,,,,,,,,,,,,,,,,,,,,,,,,,,,,,,,,,ZPRAQF,train_x,blue_star,bottom_left,2025-09-05_17h29.30.823,HideSeek_v1,2022.2.5,59.99448049370354,
,2,4,6,4,4,0,21,,train_dim1_1,17,30,,,,2,0,2,0,,,,,,,,,0,0,0,0,0,16,16,16,2,0,2,0,,,,,,,,,,,,,,,,,,,,,,,,,,,,,,,,,,,,,,,,,,,,,,,,,,,,,,,,,,,,,,,,30,,,,,,,,964.9802508999128,964.9802508999128,964.9802508999128,964.9802508999128,964.9802508999128,right,0.5410092999227345,8,0,0,99,0.24,-0.08,right,0.448217700002715,,,,,,,,,,,,,,,,,,,,,,,,,,,,,,,,,,,,,,,,,,,,,,,,,,,,,,,,,,,,ZPRAQF,train_x,blue_star,bottom_left,2025-09-05_17h29.30.823,HideSeek_v1,2022.2.5,59.99448049370354,
,2,4,6,4,4,0,21,,train_dim1_1,17,30,,,,2,0,2,0,,,,,,,,,0,0,0,0,0,16,16,16,3,0,3,0,,,,,,,,,,,,,,,,,,,,,,,,,,,,,,,,,,,,,,,,,,,,,,,,,,,,,,,,,,,,,,,,30,,,,,,,,965.5300201999489,965.5300201999489,965.5300201999489,965.5300201999489,965.5300201999489,right,0.49059980001766235,8,0,0,99,0.32,-0.08,right,0.4077568999491632,,,,,,,,,,,,,,,,,,,,,,,,,,,,,,,,,,,,,,,,,,,,,,,,,,,,,,,,,,,,ZPRAQF,train_x,blue_star,bottom_left,2025-09-05_17h29.30.823,HideSeek_v1,2022.2.5,59.99448049370354,
,2,4,6,4,4,0,21,,train_dim1_1,17,30,,,,2,0,2,0,,,,,,,,,0,0,0,0,0,16,16,16,4,0,4,0,,,,,,,,,,,,,,,,,,,,,,,,,,,,,,,,,,,,,,,,,,,,,,,,,,,,,,,,,,,,,,,,30,,,,,,,,966.0284228998935,966.0284228998935,966.0284228998935,966.0284228998935,966.0284228998935,return,0.6433980000438169,9,0,0,1,0.32,-0.08,return,0.5506448000669479,0,48,0.32,-0.08,,,,,,,,,,,,,,,,,,,,,,,,,,,,,,,,,,,,,,,,,,,,,,,,,,,,,,,,ZPRAQF,train_x,blue_star,bottom_left,2025-09-05_17h29.30.823,HideSeek_v1,2022.2.5,59.99448049370354,
,2,1,2,1,0,0,61,,train_dim1_1,18,30,,,,2,0,2,0,,,,,,,,,0,0,0,0,0,17,17,17,0,0,0,0,,,,,,,,,,,,,,,,,,,,,,,,,stimuli/alien_stimuli/61.png,,,,,,,,,,,,,,,,,,,,,,,,,,,,,stimuli/alien_stimuli/21.png,21,2,19,,,,,,,30,,,,,,,,971.7463825999293,971.7463825999293,971.7463825999293,971.7463825999293,971.7463825999293,return,4.387336799991317,10,0,0,1,0,-0.32,return,4.283540699980222,0,48,0,-0.32,970.1641517999815,971.7463825999293,0.32,-0.08,0.0,0.32,-0.08,0.32,0.16,0.32,-0.08,968.262473699986,968.262473699986,968.262473699986,968.262473699986,968.262473699986,968.262473699986,968.262473699986,968.262473699986,968.2456022998318,2.036939200013876,return,1.884467100026086,,,,,,,,,,,,,,,,,,,,,,,,,,,,,,,,,ZPRAQF,train_x,blue_star,bottom_left,2025-09-05_17h29.30.823,HideSeek_v1,2022.2.5,59.99448049370354,
,0,3,3,3,3,0,31,,train_dim1_1,19,30,,,,2,0,2,0,,,,,,,,,0,0,0,0,0,18,18,18,0,0,0,0,,,,,,,,,,,,,,,,,,,,,,,,,stimuli/alien_stimuli/31.png,,,,,,,,,,,,,,,,,,,,,,,,,,,,,stimuli/alien_stimuli/61.png,61,2,20,,,,,,,30,,,,,,,,981.0992700998904,981.0992700998904,981.0992700998904,981.0992700998904,981.0992700998904,right,4.58917679998558,10,0,0,99,-0.08,-0.16,right,4.481147399987094,,,,,979.5220073999371,981.0992700998904,0,-0.32,0.0,0.0,-0.32,0,0.0,0,-0.32,977.676915399963,977.676915399963,977.676915399963,977.676915399963,977.676915399963,977.676915399963,977.676915399963,977.676915399963,977.6537132999395,1.9540543999755755,return,1.820361000020057,,,,,,,,,,,,,,,,,,,,,,,,,,,,,,,,,ZPRAQF,train_x,blue_star,bottom_left,2025-09-05_17h29.30.823,HideSeek_v1,2022.2.5,59.99448049370354,
,0,3,3,3,3,0,31,,train_dim1_1,19,30,,,,2,0,2,0,,,,,,,,,0,0,0,0,0,18,18,18,1,0,1,0,,,,,,,,,,,,,,,,,,,,,,,,,,,,,,,,,,,,,,,,,,,,,,,,,,,,,,,,,,,,,,,,30,,,,,,,,985.6804745999398,985.6804745999398,985.6804745999398,985.6804745999398,985.6804745999398,right,0.5566093999659643,10,0,0,99,0.0,-0.16,right,0.4772599999560043,,,,,,,,,,,,,,,,,,,,,,,,,,,,,,,,,,,,,,,,,,,,,,,,,,,,,,,,,,,,ZPRAQF,train_x,blue_star,bottom_left,2025-09-05_17h29.30.823,HideSeek_v1,2022.2.5,59.99448049370354,
,0,3,3,3,3,0,31,,train_dim1_1,19,30,,,,2,0,2,0,,,,,,,,,0,0,0,0,0,18,18,18,2,0,2,0,,,,,,,,,,,,,,,,,,,,,,,,,,,,,,,,,,,,,,,,,,,,,,,,,,,,,,,,,,,,,,,,30,,,,,,,,986.2450818999205,986.2450818999205,986.2450818999205,986.2450818999205,986.2450818999205,right,0.5080918000312522,10,0,0,99,0.08,-0.16,right,0.4228285000426695,,,,,,,,,,,,,,,,,,,,,,,,,,,,,,,,,,,,,,,,,,,,,,,,,,,,,,,,,,,,ZPRAQF,train_x,blue_star,bottom_left,2025-09-05_17h29.30.823,HideSeek_v1,2022.2.5,59.99448049370354,
,0,3,3,3,3,0,31,,train_dim1_1,19,30,,,,2,0,2,0,,,,,,,,,0,0,0,0,0,18,18,18,3,0,3,0,,,,,,,,,,,,,,,,,,,,,,,,,,,,,,,,,,,,,,,,,,,,,,,,,,,,,,,,,,,,,,,,30,,,,,,,,986.7626099999761,986.7626099999761,986.7626099999761,986.7626099999761,986.7626099999761,return,0.5767453999724239,11,0,0,1,0.08,-0.16,return,0.49794680008199066,0,51,0.08,-0.16,,,,,,,,,,,,,,,,,,,,,,,,,,,,,,,,,,,,,,,,,,,,,,,,,,,,,,,,ZPRAQF,train_x,blue_star,bottom_left,2025-09-05_17h29.30.823,HideSeek_v1,2022.2.5,59.99448049370354,
,0,1,5,1,5,0,11,,train_dim1_1,20,30,,,,2,0,2,0,,,,,,,,,0,0,0,0,0,19,19,19,0,0,0,0,,,,,,,,,,,,,,,,,,,,,,,,,stimuli/alien_stimuli/11.png,,,,,,,,,,,,,,,,,,,,,,,,,,,,,stimuli/alien_stimuli/31.png,31,0,21,,,,,,,30,,,,,,,,992.797881299979,992.797881299979,992.797881299979,992.797881299979,992.797881299979,right,1.8034961000084877,11,0,0,99,-0.08,-0.32,right,1.689321200014092,,,,,991.2150561999297,992.797881299979,0.08,-0.16,0.0,0.24,-0.16,0.08,-0.04,0.08,-0.16,988.9051929999841,988.9051929999841,988.9051929999841,988.9051929999841,988.9051929999841,988.9051929999841,988.9051929999841,988.9051929999841,988.8961376999273,2.4211043999530375,return,2.293040300020948,,,,,,,,,,,,,,,,,,,,,,,,,,,,,,,,,ZPRAQF,train_x,blue_star,bottom_left,2025-09-05_17h29.30.823,HideSeek_v1,2022.2.5,59.99448049370354,
,0,1,5,1,5,0,11,,train_dim1_1,20,30,,,,2,0,2,0,,,,,,,,,0,0,0,0,0,19,19,19,1,0,1,0,,,,,,,,,,,,,,,,,,,,,,,,,,,,,,,,,,,,,,,,,,,,,,,,,,,,,,,,,,,,,,,,30,,,,,,,,994.5893446999835,994.5893446999835,994.5893446999835,994.5893446999835,994.5893446999835,right,0.4575633000349626,11,0,0,99,0.0,-0.32,right,0.36346929997671396,,,,,,,,,,,,,,,,,,,,,,,,,,,,,,,,,,,,,,,,,,,,,,,,,,,,,,,,,,,,ZPRAQF,train_x,blue_star,bottom_left,2025-09-05_17h29.30.823,HideSeek_v1,2022.2.5,59.99448049370354,
,0,1,5,1,5,0,11,,train_dim1_1,20,30,,,,2,0,2,0,,,,,,,,,0,0,0,0,0,19,19,19,2,0,2,0,,,,,,,,,,,,,,,,,,,,,,,,,,,,,,,,,,,,,,,,,,,,,,,,,,,,,,,,,,,,,,,,30,,,,,,,,995.0580174999777,995.0580174999777,995.0580174999777,995.0580174999777,995.0580174999777,right,0.5071549999993294,11,0,0,99,0.08,-0.32,right,0.420033699949272,,,,,,,,,,,,,,,,,,,,,,,,,,,,,,,,,,,,,,,,,,,,,,,,,,,,,,,,,,,,ZPRAQF,train_x,blue_star,bottom_left,2025-09-05_17h29.30.823,HideSeek_v1,2022.2.5,59.99448049370354,
,0,1,5,1,5,0,11,,train_dim1_1,20,30,,,,2,0,2,0,,,,,,,,,0,0,0,0,0,19,19,19,3,0,3,0,,,,,,,,,,,,,,,,,,,,,,,,,,,,,,,,,,,,,,,,,,,,,,,,,,,,,,,,,,,,,,,,30,,,,,,,,995.5693090999266,995.5693090999266,995.5693090999266,995.5693090999266,995.5693090999266,right,0.5450529000954702,11,0,0,99,0.16,-0.32,right,0.4556114999577403,,,,,,,,,,,,,,,,,,,,,,,,,,,,,,,,,,,,,,,,,,,,,,,,,,,,,,,,,,,,ZPRAQF,train_x,blue_star,bottom_left,2025-09-05_17h29.30.823,HideSeek_v1,2022.2.5,59.99448049370354,
,0,1,5,1,5,0,11,,train_dim1_1,20,30,,,,2,0,2,0,,,,,,,,,0,0,0,0,0,19,19,19,4,0,4,0,,,,,,,,,,,,,,,,,,,,,,,,,,,,,,,,,,,,,,,,,,,,,,,,,,,,,,,,,,,,,,,,30,,,,,,,,996.128584299935,996.128584299935,996.128584299935,996.128584299935,996.128584299935,right,0.5376617999281734,11,0,0,99,0.24,-0.32,right,0.44653409998863935,,,,,,,,,,,,,,,,,,,,,,,,,,,,,,,,,,,,,,,,,,,,,,,,,,,,,,,,,,,,ZPRAQF,train_x,blue_star,bottom_left,2025-09-05_17h29.30.823,HideSeek_v1,2022.2.5,59.99448049370354,
,0,1,5,1,5,0,11,,train_dim1_1,20,30,,,,2,0,2,0,,,,,,,,,0,0,0,0,0,19,19,19,5,0,5,0,,,,,,,,,,,,,,,,,,,,,,,,,,,,,,,,,,,,,,,,,,,,,,,,,,,,,,,,,,,,,,,,30,,,,,,,,996.6704918999458,996.6704918999458,996.6704918999458,996.6704918999458,996.6704918999458,return,0.5600740000372753,12,0,0,1,0.24,-0.32,return,0.4778254000702873,0,56,0.24,-0.32,,,,,,,,,,,,,,,,,,,,,,,,,,,,,,,,,,,,,,,,,,,,,,,,,,,,,,,,ZPRAQF,train_x,blue_star,bottom_left,2025-09-05_17h29.30.823,HideSeek_v1,2022.2.5,59.99448049370354,
,4,2,7,2,3,0,31,,train_dim1_1,21,30,,,,2,0,2,0,,,,,,,,,0,0,0,0,0,20,20,20,0,0,0,0,,,,,,,,,,,,,,,,,,,,,,,,,stimuli/alien_stimuli/31.png,,,,,,,,,,,,,,,,,,,,,,,,,,,,,stimuli/alien_stimuli/11.png,11,0,22,,,,,,,30,,,,,,,,1002.8321574999718,1002.8321574999718,1002.8321574999718,1002.8321574999718,1002.8321574999718,right,4.240011999965645,12,0,0,99,0.24,-0.24,right,4.144781999988481,,,,,1001.256641499931,1002.8321574999718,0.24,-0.32,0.0,0.4,-0.32,0.24,0.039999999999999994,0.24,-0.32,998.7998843999812,998.7998843999812,998.7998843999812,998.7998843999812,998.7998843999812,998.7998843999812,998.7998843999812,998.7998843999812,998.7875947998605,2.5719884000718594,return,2.435105500044301,,,,,,,,,,,,,,,,,,,,,,,,,,,,,,,,,ZPRAQF,train_x,blue_star,bottom_left,2025-09-05_17h29.30.823,HideSeek_v1,2022.2.5,59.99448049370354,
,4,2,7,2,3,0,31,,train_dim1_1,21,30,,,,2,0,2,0,,,,,,,,,0,0,0,0,0,20,20,20,1,0,1,0,,,,,,,,,,,,,,,,,,,,,,,,,,,,,,,,,,,,,,,,,,,,,,,,,,,,,,,,,,,,,,,,30,,,,,,,,1007.0616993999574,1007.0616993999574,1007.0616993999574,1007.0616993999574,1007.0616993999574,right,0.5082682999782264,12,0,0,99,0.32,-0.24,right,0.4289634999586269,,,,,,,,,,,,,,,,,,,,,,,,,,,,,,,,,,,,,,,,,,,,,,,,,,,,,,,,,,,,ZPRAQF,train_x,blue_star,bottom_left,2025-09-05_17h29.30.823,HideSeek_v1,2022.2.5,59.99448049370354,
,4,2,7,2,3,0,31,,train_dim1_1,21,30,,,,2,0,2,0,,,,,,,,,0,0,0,0,0,20,20,20,2,0,2,0,,,,,,,,,,,,,,,,,,,,,,,,,,,,,,,,,,,,,,,,,,,,,,,,,,,,,,,,,,,,,,,,30,,,,,,,,1007.5762195999268,1007.5762195999268,1007.5762195999268,1007.5762195999268,1007.5762195999268,right,0.59335890004877,12,0,0,99,0.4,-0.24,right,0.5101482999743894,,,,,,,,,,,,,,,,,,,,,,,,,,,,,,,,,,,,,,,,,,,,,,,,,,,,,,,,,,,,ZPRAQF,train_x,blue_star,bottom_left,2025-09-05_17h29.30.823,HideSeek_v1,2022.2.5,59.99448049370354,
,4,2,7,2,3,0,31,,train_dim1_1,21,30,,,,2,0,2,0,,,,,,,,,0,0,0,0,0,20,20,20,3,0,3,0,,,,,,,,,,,,,,,,,,,,,,,,,,,,,,,,,,,,,,,,,,,,,,,,,,,,,,,,,,,,,,,,30,,,,,,,,1008.1761017999379,1008.1761017999379,1008.1761017999379,1008.1761017999379,1008.1761017999379,return,1.7273653999436647,13,0,0,1,0.4,-0.24,return,1.651843599975109,0,59,0.4,-0.24,,,,,,,,,,,,,,,,,,,,,,,,,,,,,,,,,,,,,,,,,,,,,,,,,,,,,,,,ZPRAQF,train_x,blue_star,bottom_left,2025-09-05_17h29.30.823,HideSeek_v1,2022.2.5,59.99448049370354,
,1,0,5,0,4,0,21,,train_dim1_1,22,30,,,,2,0,2,0,,,,,,,,,0,0,0,0,0,21,21,21,0,0,0,0,,,,,,,,,,,,,,,,,,,,,,,,,stimuli/alien_stimuli/21.png,,,,,,,,,,,,,,,,,,,,,,,,,,,,,stimuli/alien_stimuli/31.png,31,4,23,,,,,,,30,,,,,,,,1014.9318243999733,1014.9318243999733,1014.9318243999733,1014.9318243999733,1014.9318243999733,right,2.6213219999335706,13,0,0,99,0.0,-0.4,right,2.507233800017275,,,,,1013.3500410999404,1014.9318243999733,0.4,-0.24,0.0,0.24,-0.24,0.4,0.28,0.4,-0.24,1011.4897933999309,1011.4897933999309,1011.4897933999309,1011.4897933999309,1011.4897933999309,1011.4897933999309,1011.4897933999309,1011.4897933999309,1011.4813724998618,1.9873463999247178,return,1.8302703000372276,,,,,,,,,,,,,,,,,,,,,,,,,,,,,,,,,ZPRAQF,train_x,blue_star,bottom_left,2025-09-05_17h29.30.823,HideSeek_v1,2022.2.5,59.99448049370354,
,1,0,5,0,4,0,21,,train_dim1_1,22,30,,,,2,0,2,0,,,,,,,,,0,0,0,0,0,21,21,21,1,0,1,0,,,,,,,,,,,,,,,,,,,,,,,,,,,,,,,,,,,,,,,,,,,,,,,,,,,,,,,,,,,,,,,,30,,,,,,,,1017.5407956999261,1017.5407956999261,1017.5407956999261,1017.5407956999261,1017.5407956999261,right,0.4591901999665424,13,0,0,99,0.08,-0.4,right,0.3756147000240162,,,,,,,,,,,,,,,,,,,,,,,,,,,,,,,,,,,,,,,,,,,,,,,,,,,,,,,,,,,,ZPRAQF,train_x,blue_star,bottom_left,2025-09-05_17h29.30.823,HideSeek_v1,2022.2.5,59.99448049370354,
,1,0,5,0,4,0,21,,train_dim1_1,22,30,,,,2,0,2,0,,,,,,,,,0,0,0,0,0,21,21,21,2,0,2,0,,,,,,,,,,,,,,,,,,,,,,,,,,,,,,,,,,,,,,,,,,,,,,,,,,,,,,,,,,,,,,,,30,,,,,,,,1018.0073305999395,1018.0073305999395,1018.0073305999395,1018.0073305999395,1018.0073305999395,right,0.5431123999878764,13,0,0,99,0.16,-0.4,right,0.46081459999550134,,,,,,,,,,,,,,,,,,,,,,,,,,,,,,,,,,,,,,,,,,,,,,,,,,,,,,,,,,,,ZPRAQF,train_x,blue_star,bottom_left,2025-09-05_17h29.30.823,HideSeek_v1,2022.2.5,59.99448049370354,
,1,0,5,0,4,0,21,,train_dim1_1,22,30,,,,2,0,2,0,,,,,,,,,0,0,0,0,0,21,21,21,3,0,3,0,,,,,,,,,,,,,,,,,,,,,,,,,,,,,,,,,,,,,,,,,,,,,,,,,,,,,,,,,,,,,,,,30,,,,,,,,1018.5558496000012,1018.5558496000012,1018.5558496000012,1018.5558496000012,1018.5558496000012,right,0.5937592000700533,13,0,0,99,0.24,-0.4,right,0.5038188999751583,,,,,,,,,,,,,,,,,,,,,,,,,,,,,,,,,,,,,,,,,,,,,,,,,,,,,,,,,,,,ZPRAQF,train_x,blue_star,bottom_left,2025-09-05_17h29.30.823,HideSeek_v1,2022.2.5,59.99448049370354,
,1,0,5,0,4,0,21,,train_dim1_1,22,30,,,,2,0,2,0,,,,,,,,,0,0,0,0,0,21,21,21,4,0,4,0,,,,,,,,,,,,,,,,,,,,,,,,,,,,,,,,,,,,,,,,,,,,,,,,,,,,,,,,,,,,,,,,30,,,,,,,,1019.1598800999345,1019.1598800999345,1019.1598800999345,1019.1598800999345,1019.1598800999345,return,0.6251076000044122,14,0,0,1,0.24,-0.4,return,0.5335923000238836,0,63,0.24,-0.4,,,,,,,,,,,,,,,,,,,,,,,,,,,,,,,,,,,,,,,,,,,,,,,,,,,,,,,,ZPRAQF,train_x,blue_star,bottom_left,2025-09-05_17h29.30.823,HideSeek_v1,2022.2.5,59.99448049370354,
,2,1,2,1,0,0,61,,train_dim1_1,23,30,,,,2,0,2,0,,,,,,,,,0,0,0,0,0,22,22,22,0,0,0,0,,,,,,,,,,,,,,,,,,,,,,,,,stimuli/alien_stimuli/61.png,,,,,,,,,,,,,,,,,,,,,,,,,,,,,stimuli/alien_stimuli/21.png,21,1,24,,,,,,,30,,,,,,,,1024.5867707999423,1024.5867707999423,1024.5867707999423,1024.5867707999423,1024.5867707999423,right,2.5889946999959648,14,0,0,99,0.08,-0.32,right,2.4829514999873936,,,,,1023.0079363998957,1024.5867707999423,0.24,-0.4,0.0,0.32,-0.4,0.24,0.07999999999999999,0.24,-0.4,1021.3538503999589,1021.3538503999589,1021.3538503999589,1021.3538503999589,1021.3538503999589,1021.3538503999589,1021.3538503999589,1021.3538503999589,1021.3396872998915,1.7703753999667242,return,1.6239994999486953,,,,,,,,,,,,,,,,,,,,,,,,,,,,,,,,,ZPRAQF,train_x,blue_star,bottom_left,2025-09-05_17h29.30.823,HideSeek_v1,2022.2.5,59.99448049370354,
,2,1,2,1,0,0,61,,train_dim1_1,23,30,,,,2,0,2,0,,,,,,,,,0,0,0,0,0,22,22,22,1,0,1,0,,,,,,,,,,,,,,,,,,,,,,,,,,,,,,,,,,,,,,,,,,,,,,,,,,,,,,,,,,,,,,,,30,,,,,,,,1027.1601240999298,1027.1601240999298,1027.1601240999298,1027.1601240999298,1027.1601240999298,return,0.7931752000004053,14,1,0,0,0.08,-0.32,return,0.7042848999844864,0,64,0.08,-0.32,,,,,,,,,,,,,,,,,,,,,,,,,,,,,,,,,,,,,,,,,,,,,,,,,,,,,,,,ZPRAQF,train_x,blue_star,bottom_left,2025-09-05_17h29.30.823,HideSeek_v1,2022.2.5,59.99448049370354,
,4,4,5,4,1,0,51,,train_dim1_1,24,30,,,,2,0,2,0,,,,,,,,,0,0,0,0,0,23,23,23,0,0,0,0,,,,,,,,,,,,,,,,,,,,,,,,,stimuli/alien_stimuli/51.png,,,,,,,,,,,,,,,,,,,,,,,,,,,,,stimuli/alien_stimuli/61.png,61,2,25,,,,,,,30,,,,,,,,1032.9775825999677,1032.9775825999677,1032.9775825999677,1032.9775825999677,1032.9775825999677,return,2.839977000025101,14,1,0,0,0.16,-0.08,return,2.734160599997267,0,64,0.16,-0.08,1031.398417599965,1032.9775825999677,0,-0.32,0.0,0.0,-0.32,0,0.0,0,-0.32,1029.5204669999657,1029.5204669999657,1029.5204669999657,1029.5204669999657,1029.5204669999657,1029.5204669999657,1029.5204669999657,1029.5204669999657,1029.5132625999163,1.9868210999993607,return,1.8518735999241471,,,,,,,,,,,,,,,,,,,,,,,,,,,,,,,,,ZPRAQF,train_x,blue_star,bottom_left,2025-09-05_17h29.30.823,HideSeek_v1,2022.2.5,59.99448049370354,
,3,0,8,0,5,0,11,,train_dim1_1,25,30,,,,2,0,2,0,,,,,,,,,0,0,0,0,0,24,24,24,0,0,0,0,,,,,,,,,,,,,,,,,,,,,,,,,stimuli/alien_stimuli/11.png,,,,,,,,,,,,,,,,,,,,,,,,,,,,,stimuli/alien_stimuli/51.png,51,4,26,,,,,,,30,,,,,,,,1041.0524298999226,1041.0524298999226,1041.0524298999226,1041.0524298999226,1041.0524298999226,right,1.4877614999422804,14,1,0,99,0.16,-0.4,right,1.3756442000158131,,,,,1039.4716962999664,1041.0524298999226,0.24,-0.08,0.0,0.08,-0.08,0.24,0.2,0.24,-0.08,1037.3601927999407,1037.3601927999407,1037.3601927999407,1037.3601927999407,1037.3601927999407,1037.3601927999407,1037.3601927999407,1037.3601927999407,1037.3531827998581,2.2206956999143586,return,2.0794959999620914,,,,,,,,,,,,,,,,,,,,,,,,,,,,,,,,,ZPRAQF,train_x,blue_star,bottom_left,2025-09-05_17h29.30.823,HideSeek_v1,2022.2.5,59.99448049370354,
,3,0,8,0,5,0,11,,train_dim1_1,25,30,,,,2,0,2,0,,,,,,,,,0,0,0,0,0,24,24,24,1,0,1,0,,,,,,,,,,,,,,,,,,,,,,,,,,,,,,,,,,,,,,,,,,,,,,,,,,,,,,,,,,,,,,,,30,,,,,,,,1042.5268928000005,1042.5268928000005,1042.5268928000005,1042.5268928000005,1042.5268928000005,right,0.4923510999651626,14,1,0,99,0.24,-0.4,right,0.4091139000374824,,,,,,,,,,,,,,,,,,,,,,,,,,,,,,,,,,,,,,,,,,,,,,,,,,,,,,,,,,,,ZPRAQF,train_x,blue_star,bottom_left,2025-09-05_17h29.30.823,HideSeek_v1,2022.2.5,59.99448049370354,
,3,0,8,0,5,0,11,,train_dim1_1,25,30,,,,2,0,2,0,,,,,,,,,0,0,0,0,0,24,24,24,2,0,2,0,,,,,,,,,,,,,,,,,,,,,,,,,,,,,,,,,,,,,,,,,,,,,,,,,,,,,,,,,,,,,,,,30,,,,,,,,1043.0273491999833,1043.0273491999833,1043.0273491999833,1043.0273491999833,1043.0273491999833,right,0.5259664000477642,14,1,0,99,0.32,-0.4,right,0.44519690005108714,,,,,,,,,,,,,,,,,,,,,,,,,,,,,,,,,,,,,,,,,,,,,,,,,,,,,,,,,,,,ZPRAQF,train_x,blue_star,bottom_left,2025-09-05_17h29.30.823,HideSeek_v1,2022.2.5,59.99448049370354,
,3,0,8,0,5,0,11,,train_dim1_1,25,30,,,,2,0,2,0,,,,,,,,,0,0,0,0,0,24,24,24,3,0,3,0,,,,,,,,,,,,,,,,,,,,,,,,,,,,,,,,,,,,,,,,,,,,,,,,,,,,,,,,,,,,,,,,30,,,,,,,,1043.5609779999359,1043.5609779999359,1043.5609779999359,1043.5609779999359,1043.5609779999359,right,0.5433249999769032,14,1,0,99,0.4,-0.4,right,0.46002879994921386,,,,,,,,,,,,,,,,,,,,,,,,,,,,,,,,,,,,,,,,,,,,,,,,,,,,,,,,,,,,ZPRAQF,train_x,blue_star,bottom_left,2025-09-05_17h29.30.823,HideSeek_v1,2022.2.5,59.99448049370354,
,3,0,8,0,5,0,11,,train_dim1_1,25,30,,,,2,0,2,0,,,,,,,,,0,0,0,0,0,24,24,24,4,0,4,0,,,,,,,,,,,,,,,,,,,,,,,,,,,,,,,,,,,,,,,,,,,,,,,,,,,,,,,,,,,,,,,,30,,,,,,,,1044.11271269992,1044.11271269992,1044.11271269992,1044.11271269992,1044.11271269992,right,0.6603634000057355,14,1,0,99,0.48000000000000004,-0.4,right,0.5714615000179037,,,,,,,,,,,,,,,,,,,,,,,,,,,,,,,,,,,,,,,,,,,,,,,,,,,,,,,,,,,,ZPRAQF,train_x,blue_star,bottom_left,2025-09-05_17h29.30.823,HideSeek_v1,2022.2.5,59.99448049370354,
,3,0,8,0,5,0,11,,train_dim1_1,25,30,,,,2,0,2,0,,,,,,,,,0,0,0,0,0,24,24,24,5,0,5,0,,,,,,,,,,,,,,,,,,,,,,,,,,,,,,,,,,,,,,,,,,,,,,,,,,,,,,,,,,,,,,,,30,,,,,,,,1044.7796602000017,1044.7796602000017,1044.7796602000017,1044.7796602000017,1044.7796602000017,return,0.7413450999883935,15,0,0,1,0.48000000000000004,-0.4,return,0.6587708999868482,0,69,0.48000000000000004,-0.4,,,,,,,,,,,,,,,,,,,,,,,,,,,,,,,,,,,,,,,,,,,,,,,,,,,,,,,,ZPRAQF,train_x,blue_star,bottom_left,2025-09-05_17h29.30.823,HideSeek_v1,2022.2.5,59.99448049370354,
,1,1,1,1,0,0,61,,train_dim1_1,26,30,,,,2,0,2,0,,,,,,,,,0,0,0,0,0,25,25,25,0,0,0,0,,,,,,,,,,,,,,,,,,,,,,,,,stimuli/alien_stimuli/61.png,,,,,,,,,,,,,,,,,,,,,,,,,,,,,stimuli/alien_stimuli/11.png,11,3,27,,,,,,,30,,,,,,,,1050.6748780999333,1050.6748780999333,1050.6748780999333,1050.6748780999333,1050.6748780999333,return,4.174565499997698,16,0,0,1,-0.08,-0.32,return,4.066119299968705,0,69,-0.08,-0.32,1049.096202399931,1050.6748780999333,0.48,-0.4,0.0,0.4,-0.4,0.48,0.27999999999999997,0.48,-0.4,1047.0942360999761,1047.0942360999761,1047.0942360999761,1047.0942360999761,1047.0942360999761,1047.0942360999761,1047.0942360999761,1047.0942360999761,1047.0777937998996,2.120689300005324,return,1.973744499962777,,,,,,,,,,,,,,,,,,,,,,,,,,,,,,,,,ZPRAQF,train_x,blue_star,bottom_left,2025-09-05_17h29.30.823,HideSeek_v1,2022.2.5,59.99448049370354,
,0,1,3,1,3,0,31,,train_dim1_1,27,30,,,,2,0,2,0,,,,,,,,,0,0,0,0,0,26,26,26,0,0,0,0,,,,,,,,,,,,,,,,,,,,,,,,,stimuli/alien_stimuli/31.png,,,,,,,,,,,,,,,,,,,,,,,,,,,,,stimuli/alien_stimuli/61.png,61,1,28,,,,,,,30,,,,,,,,1060.4369385999162,1060.4369385999162,1060.4369385999162,1060.4369385999162,1060.4369385999162,right,2.836937600048259,16,0,0,99,-0.08,-0.32,right,2.722827999969013,,,,,1058.8542377999984,1060.4369385999162,-0.08,-0.32,0.0,0.0,-0.32,-0.08,-0.08,-0.08,-0.32,1056.3917793999426,1056.3917793999426,1056.3917793999426,1056.3917793999426,1056.3917793999426,1056.3917793999426,1056.3917793999426,1056.3917793999426,1056.3856135998853,2.570890499977395,return,2.430888899951242,,,,,,,,,,,,,,,,,,,,,,,,,,,,,,,,,ZPRAQF,train_x,blue_star,bottom_left,2025-09-05_17h29.30.823,HideSeek_v1,2022.2.5,59.99448049370354,
,0,1,3,1,3,0,31,,train_dim1_1,27,30,,,,2,0,2,0,,,,,,,,,0,0,0,0,0,26,26,26,1,0,1,0,,,,,,,,,,,,,,,,,,,,,,,,,,,,,,,,,,,,,,,,,,,,,,,,,,,,,,,,,,,,,,,,30,,,,,,,,1063.2564520000014,1063.2564520000014,1063.2564520000014,1063.2564520000014,1063.2564520000014,right,0.6264018999645486,16,0,0,99,0.0,-0.32,right,0.5474583000177518,,,,,,,,,,,,,,,,,,,,,,,,,,,,,,,,,,,,,,,,,,,,,,,,,,,,,,,,,,,,ZPRAQF,train_x,blue_star,bottom_left,2025-09-05_17h29.30.823,HideSeek_v1,2022.2.5,59.99448049370354,
,0,1,3,1,3,0,31,,train_dim1_1,27,30,,,,2,0,2,0,,,,,,,,,0,0,0,0,0,26,26,26,2,0,2,0,,,,,,,,,,,,,,,,,,,,,,,,,,,,,,,,,,,,,,,,,,,,,,,,,,,,,,,,,,,,,,,,30,,,,,,,,1063.8927520998986,1063.8927520998986,1063.8927520998986,1063.8927520998986,1063.8927520998986,right,0.5574373000999913,16,0,0,99,0.08,-0.32,right,0.4698729000519961,,,,,,,,,,,,,,,,,,,,,,,,,,,,,,,,,,,,,,,,,,,,,,,,,,,,,,,,,,,,ZPRAQF,train_x,blue_star,bottom_left,2025-09-05_17h29.30.823,HideSeek_v1,2022.2.5,59.99448049370354,
,0,1,3,1,3,0,31,,train_dim1_1,27,30,,,,2,0,2,0,,,,,,,,,0,0,0,0,0,26,26,26,3,0,3,0,,,,,,,,,,,,,,,,,,,,,,,,,,,,,,,,,,,,,,,,,,,,,,,,,,,,,,,,,,,,,,,,30,,,,,,,,1064.4570556998951,1064.4570556998951,1064.4570556998951,1064.4570556998951,1064.4570556998951,return,0.6763743999181315,17,0,0,1,0.08,-0.32,return,0.5872723000356928,0,72,0.08,-0.32,,,,,,,,,,,,,,,,,,,,,,,,,,,,,,,,,,,,,,,,,,,,,,,,,,,,,,,,ZPRAQF,train_x,blue_star,bottom_left,2025-09-05_17h29.30.823,HideSeek_v1,2022.2.5,59.99448049370354,
,3,1,7,1,4,0,21,,train_dim1_1,28,30,,,,2,0,2,0,,,,,,,,,0,0,0,0,0,27,27,27,0,0,0,0,,,,,,,,,,,,,,,,,,,,,,,,,stimuli/alien_stimuli/21.png,,,,,,,,,,,,,,,,,,,,,,,,,,,,,stimuli/alien_stimuli/31.png,31,0,29,,,,,,,30,,,,,,,,1069.6253986998927,1069.6253986998927,1069.6253986998927,1069.6253986998927,1069.6253986998927,right,1.6676222999813035,17,0,0,99,0.16,-0.32,right,1.5635251000057906,,,,,1068.0452517999802,1069.6253986998927,0.08,-0.32,0.0,0.24,-0.32,0.08,-0.04,0.08,-0.32,1066.7241287999786,1066.7241287999786,1066.7241287999786,1066.7241287999786,1066.7241287999786,1066.7241287999786,1066.7241287999786,1066.7241287999786,1066.7106928999071,1.453214600100182,return,1.2977784000104293,,,,,,,,,,,,,,,,,,,,,,,,,,,,,,,,,ZPRAQF,train_x,blue_star,bottom_left,2025-09-05_17h29.30.823,HideSeek_v1,2022.2.5,59.99448049370354,
,3,1,7,1,4,0,21,,train_dim1_1,28,30,,,,2,0,2,0,,,,,,,,,0,0,0,0,0,27,27,27,1,0,1,0,,,,,,,,,,,,,,,,,,,,,,,,,,,,,,,,,,,,,,,,,,,,,,,,,,,,,,,,,,,,,,,,30,,,,,,,,1071.2835593998898,1071.2835593998898,1071.2835593998898,1071.2835593998898,1071.2835593998898,right,0.476265300065279,17,0,0,99,0.24,-0.32,right,0.39432610000949353,,,,,,,,,,,,,,,,,,,,,,,,,,,,,,,,,,,,,,,,,,,,,,,,,,,,,,,,,,,,ZPRAQF,train_x,blue_star,bottom_left,2025-09-05_17h29.30.823,HideSeek_v1,2022.2.5,59.99448049370354,
,3,1,7,1,4,0,21,,train_dim1_1,28,30,,,,2,0,2,0,,,,,,,,,0,0,0,0,0,27,27,27,2,0,2,0,,,,,,,,,,,,,,,,,,,,,,,,,,,,,,,,,,,,,,,,,,,,,,,,,,,,,,,,,,,,,,,,30,,,,,,,,1071.7724863999756,1071.7724863999756,1071.7724863999756,1071.7724863999756,1071.7724863999756,right,0.6270643000025302,17,0,0,99,0.32,-0.32,right,0.5439916999312118,,,,,,,,,,,,,,,,,,,,,,,,,,,,,,,,,,,,,,,,,,,,,,,,,,,,,,,,,,,,ZPRAQF,train_x,blue_star,bottom_left,2025-09-05_17h29.30.823,HideSeek_v1,2022.2.5,59.99448049370354,
,3,1,7,1,4,0,21,,train_dim1_1,28,30,,,,2,0,2,0,,,,,,,,,0,0,0,0,0,27,27,27,3,0,3,0,,,,,,,,,,,,,,,,,,,,,,,,,,,,,,,,,,,,,,,,,,,,,,,,,,,,,,,,,,,,,,,,30,,,,,,,,1072.4016563999467,1072.4016563999467,1072.4016563999467,1072.4016563999467,1072.4016563999467,right,0.608802100061439,17,0,0,99,0.4,-0.32,right,0.522254699957557,,,,,,,,,,,,,,,,,,,,,,,,,,,,,,,,,,,,,,,,,,,,,,,,,,,,,,,,,,,,ZPRAQF,train_x,blue_star,bottom_left,2025-09-05_17h29.30.823,HideSeek_v1,2022.2.5,59.99448049370354,
,3,1,7,1,4,0,21,,train_dim1_1,28,30,,,,2,0,2,0,,,,,,,,,0,0,0,0,0,27,27,27,4,0,4,0,,,,,,,,,,,,,,,,,,,,,,,,,,,,,,,,,,,,,,,,,,,,,,,,,,,,,,,,,,,,,,,,30,,,,,,,,1073.0237823999487,1073.0237823999487,1073.0237823999487,1073.0237823999487,1073.0237823999487,return,0.6740046000340953,18,0,0,1,0.4,-0.32,return,0.5876986000221223,0,76,0.4,-0.32,,,,,,,,,,,,,,,,,,,,,,,,,,,,,,,,,,,,,,,,,,,,,,,,,,,,,,,,ZPRAQF,train_x,blue_star,bottom_left,2025-09-05_17h29.30.823,HideSeek_v1,2022.2.5,59.99448049370354,
,4,0,5,0,1,0,51,,train_dim1_1,29,30,,,,2,0,2,0,,,,,,,,,0,0,0,0,0,28,28,28,0,0,0,0,,,,,,,,,,,,,,,,,,,,,,,,,stimuli/alien_stimuli/51.png,,,,,,,,,,,,,,,,,,,,,,,,,,,,,stimuli/alien_stimuli/21.png,21,3,30,,,,,,,30,,,,,,,,1079.248162999982,1079.248162999982,1079.248162999982,1079.248162999982,1079.248162999982,right,3.991631699958816,18,0,0,99,0.24,-0.4,right,3.8840970000019297,,,,,1077.6700013999362,1079.248162999982,0.4,-0.32,0.0,0.32,-0.32,0.4,0.24000000000000002,0.4,-0.32,1075.26264109998,1075.26264109998,1075.26264109998,1075.26264109998,1075.26264109998,1075.26264109998,1075.26264109998,1075.26264109998,1075.2512085998665,2.5212392999092117,return,2.388995800050907,,,,,,,,,,,,,,,,,,,,,,,,,,,,,,,,,ZPRAQF,train_x,blue_star,bottom_left,2025-09-05_17h29.30.823,HideSeek_v1,2022.2.5,59.99448049370354,
,4,0,5,0,1,0,51,,train_dim1_1,29,30,,,,2,0,2,0,,,,,,,,,0,0,0,0,0,28,28,28,1,0,1,0,,,,,,,,,,,,,,,,,,,,,,,,,,,,,,,,,,,,,,,,,,,,,,,,,,,,,,,,,,,,,,,,30,,,,,,,,1083.2280814999249,1083.2280814999249,1083.2280814999249,1083.2280814999249,1083.2280814999249,return,0.6069081999594346,19,0,0,1,0.24,-0.4,return,0.5189279000042006,0,77,0.24,-0.4,,,,,,,,,,,,,,,,,,,,,,,,,,,,,,,,,,,,,,,,,,,,,,,,,,,,,,,,ZPRAQF,train_x,blue_star,bottom_left,2025-09-05_17h29.30.823,HideSeek_v1,2022.2.5,59.99448049370354,
,2,2,7,2,5,0,11,,train_dim1_1,30,30,,,,2,0,2,0,,,,,,,,,0,0,0,0,0,29,29,29,0,0,0,0,,,,,,,,,,,,,,,,,,,,,,,,,stimuli/alien_stimuli/11.png,,,,,,,,,,,,,,,,,,,,,,,,,,,,,stimuli/alien_stimuli/51.png,51,4,31,,,,,,,30,,,,,,,,1089.0944861999014,1089.0944861999014,1089.0944861999014,1089.0944861999014,1089.0944861999014,right,1.6708825000096112,19,0,0,99,0.08,-0.24,right,1.5655745000112802,,,,,1087.5115401999792,1089.0944861999014,0.24,-0.4,0.0,0.08,-0.4,0.24,0.2,0.24,-0.4,1085.4024411999853,1085.4024411999853,1085.4024411999853,1085.4024411999853,1085.4024411999853,1085.4024411999853,1085.4024411999853,1085.4024411999853,1085.392990499828,2.220944800064899,return,2.087527900002897,,,,,,,,,,,,,,,,,,,,,,,,,,,,,,,,,ZPRAQF,train_x,blue_star,bottom_left,2025-09-05_17h29.30.823,HideSeek_v1,2022.2.5,59.99448049370354,
,2,2,7,2,5,0,11,,train_dim1_1,30,30,,,,2,0,2,0,,,,,,,,,0,0,0,0,0,29,29,29,1,0,1,0,,,,,,,,,,,,,,,,,,,,,,,,,,,,,,,,,,,,,,,,,,,,,,,,,,,,,,,,,,,,,,,,30,,,,,,,,1090.752928599948,1090.752928599948,1090.752928599948,1090.752928599948,1090.752928599948,right,0.40905000001657754,19,0,0,99,0.16,-0.24,right,0.3253789000445977,,,,,,,,,,,,,,,,,,,,,,,,,,,,,,,,,,,,,,,,,,,,,,,,,,,,,,,,,,,,ZPRAQF,train_x,blue_star,bottom_left,2025-09-05_17h29.30.823,HideSeek_v1,2022.2.5,59.99448049370354,
,2,2,7,2,5,0,11,,train_dim1_1,30,30,,,,2,0,2,0,,,,,,,,,0,0,0,0,0,29,29,29,2,0,2,0,,,,,,,,,,,,,,,,,,,,,,,,,,,,,,,,,,,,,,,,,,,,,,,,,,,,,,,,,,,,,,,,30,,,,,,,,1091.1690044999123,1091.1690044999123,1091.1690044999123,1091.1690044999123,1091.1690044999123,right,0.5268713999539614,19,0,0,99,0.24,-0.24,right,0.44659259996842593,,,,,,,,,,,,,,,,,,,,,,,,,,,,,,,,,,,,,,,,,,,,,,,,,,,,,,,,,,,,ZPRAQF,train_x,blue_star,bottom_left,2025-09-05_17h29.30.823,HideSeek_v1,2022.2.5,59.99448049370354,
,2,2,7,2,5,0,11,,train_dim1_1,30,30,,,,2,0,2,0,,,,,,,,,0,0,0,0,0,29,29,29,3,0,3,0,,,,,,,,,,,,,,,,,,,,,,,,,,,,,,,,,,,,,,,,,,,,,,,,,,,,,,,,,,,,,,,,30,,,,,,,,1091.702453399892,1091.702453399892,1091.702453399892,1091.702453399892,1091.702453399892,right,0.5259185000322759,19,0,0,99,0.32,-0.24,right,0.43899290007539093,,,,,,,,,,,,,,,,,,,,,,,,,,,,,,,,,,,,,,,,,,,,,,,,,,,,,,,,,,,,ZPRAQF,train_x,blue_star,bottom_left,2025-09-05_17h29.30.823,HideSeek_v1,2022.2.5,59.99448049370354,
,2,2,7,2,5,0,11,,train_dim1_1,30,30,,,,2,0,2,0,,,,,,,,,0,0,0,0,0,29,29,29,4,0,4,0,,,,,,,,,,,,,,,,,,,,,,,,,,,,,,,,,,,,,,,,,,,,,,,,,,,,,,,,,,,,,,,,30,,,,,,,,1092.2359628999839,1092.2359628999839,1092.2359628999839,1092.2359628999839,1092.2359628999839,right,0.5268291999818757,19,0,0,99,0.4,-0.24,right,0.44014880002941936,,,,,,,,,,,,,,,,,,,,,,,,,,,,,,,,,,,,,,,,,,,,,,,,,,,,,,,,,,,,ZPRAQF,train_x,blue_star,bottom_left,2025-09-05_17h29.30.823,HideSeek_v1,2022.2.5,59.99448049370354,
,2,2,7,2,5,0,11,,train_dim1_1,30,30,,,,2,0,2,0,,,,,,,,,0,0,0,0,0,29,29,29,5,0,5,0,,,,,,,,,,,,,,,,,,,,,,,,,,,,,,,,,,,,,,,,,,,,,,,,,,,,,,,,,,,,,,,,30,,,,,,,,1092.7690142999636,1092.7690142999636,1092.7690142999636,1092.7690142999636,1092.7690142999636,return,0.542573600076139,20,0,0,1,0.4,-0.24,return,0.46336109994444996,0,82,0.4,-0.24,,,,,,,,,,,,,,,,,,,,,,,,,,,,,,,,,,,,,,,,,,,,,,,,,,,,,,,,ZPRAQF,train_x,blue_star,bottom_left,2025-09-05_17h29.30.823,HideSeek_v1,2022.2.5,59.99448049370354,
,,,,,,,,,,,30,,,,2,0,2,0,,,,,,,,,,,,,,,,,,,,,,,,,,,,,,,,,,,,,,,,,,,,,,,,,,,,,,,,,,,,,,,,,,,,,,,,,,stimuli/alien_stimuli/11.png,11,2,32,21,0.7,0.8333333333333335,1,1,1,30,0,conditions/schedules/train_x_first/blue_star_00/bottom_left/inputTrain_2.1.xlsx,99,1,2,1,0,,,,,,,,,,,1,,,,,,,,,1100.4220640999265,1101.9667599999812,0.4,-0.24,0.0,0.4,-0.24,0.4,0.2,0.4,-0.24,1094.8796703999396,1094.8796703999396,1094.8796703999396,1094.8796703999396,1094.8796703999396,1094.8796703999396,1094.8796703999396,1094.8796703999396,1094.8673867998646,5.656690299976617,return,5.517018100013956,0,0.9,0,1,20,,,,,,,,,,,,,,,,,,,,,,,,,,,,ZPRAQF,train_x,blue_star,bottom_left,2025-09-05_17h29.30.823,HideSeek_v1,2022.2.5,59.99448049370354,
,,,,,,,,,,,,,,,3,0,3,0,0,0,0,0,,,,,,,,,,,,,,,,,,,,,,,,,,,,,,,conditions/schedules/train_x_first/blue_star_00/bottom_left/instructions/Slide17.png,conditions/schedules/train_x_first/blue_star_00/bottom_left/instructions/Audio17.wav,1101.9667599999812,1101.9566211998697,17,"[2.850459299981594, 18.148223500000313, 17.16323479998391, 19.1854258000385, 4.555508199962787, 5.370316099957563, 5.6315761000150815, 11.350634000031278, 5.789844600018114, 6.644274600083008, 9.169486799975857, 12.667913099983707, 20.02763689996209, 14.41275419993326, 30.578935700003058, 21.562644099933095, 54.08287799998652]","[0.00022060004994273186, 0.04902909998781979, 0.0002145000034943223, 0.01503679994493723, 0.014617699896916747, 0.06467730004806072, 0.0376535999821499, 0.06780520000029355, 0.10548840009141713, 0.048057999927550554, 0.074228800018318, 12.667922000051476, 0.00021659990306943655, 14.412761599989608, 0.04744999995455146, 21.562651499989443, 54.08288729994092]",0,,,,,,,,,,,,,,,,,,,,,,,,,,,,,,,,,,,,,,,,,,,,,,,,,,,,,,,,,,,,,,,,,,,,,,,,,,,,,,,,,,,,,,,,,,,,,,,,,,,,,,,,,,,,,,,,,,,,,,,,,,,,ZPRAQF,train_x,blue_star,bottom_left,2025-09-05_17h29.30.823,HideSeek_v1,2022.2.5,59.99448049370354,
,,,,,,,,,,,,,,,3,0,3,0,1,0,1,0,,,,,,,,,,,,,,,,,,,,,,,,,,,,,,,conditions/schedules/train_x_first/blue_star_00/bottom_left/instructions/Slide18.png,conditions/schedules/train_x_first/blue_star_00/bottom_left/instructions/Audio18.wav,1156.107094499981,1156.1017007999587,18,"[2.850459299981594, 18.148223500000313, 17.16323479998391, 19.1854258000385, 4.555508199962787, 5.370316099957563, 5.6315761000150815, 11.350634000031278, 5.789844600018114, 6.644274600083008, 9.169486799975857, 12.667913099983707, 20.02763689996209, 14.41275419993326, 30.578935700003058, 21.562644099933095, 54.08287799998652, 5.963862800039351]","[0.00022060004994273186, 0.04902909998781979, 0.0002145000034943223, 0.01503679994493723, 0.014617699896916747, 0.06467730004806072, 0.0376535999821499, 0.06780520000029355, 0.10548840009141713, 0.048057999927550554, 0.074228800018318, 12.667922000051476, 0.00021659990306943655, 14.412761599989608, 0.04744999995455146, 21.562651499989443, 0.047756999963894486, 5.963870299980044]",0,,,,,,,,,,,,,,,,,,,,,,,,,,,,,,,,,,,,,,,,,,,,,,,,,,,,,,,,,,,,,,,,,,,,,,,,,,,,,,,,,,,,,,,,,,,,,,,,,,,,,,,,,,,,,,,,,,,,,,,,,,,,ZPRAQF,train_x,blue_star,bottom_left,2025-09-05_17h29.30.823,HideSeek_v1,2022.2.5,59.99448049370354,
,,,,,,,,,,,,,,,3,0,3,0,2,0,2,0,,,,,,,,,,,,,,,,,,,,,,,,,,,,,,,conditions/schedules/train_x_first/blue_star_00/bottom_left/instructions/Slide19.png,conditions/schedules/train_x_first/blue_star_00/bottom_left/instructions/Audio19.wav,1162.1128474998986,1162.1066163998564,19,"[2.850459299981594, 18.148223500000313, 17.16323479998391, 19.1854258000385, 4.555508199962787, 5.370316099957563, 5.6315761000150815, 11.350634000031278, 5.789844600018114, 6.644274600083008, 9.169486799975857, 12.667913099983707, 20.02763689996209, 14.41275419993326, 30.578935700003058, 21.562644099933095, 54.08287799998652, 5.963862800039351, 9.9164732999634]","[0.00022060004994273186, 0.04902909998781979, 0.0002145000034943223, 0.01503679994493723, 0.014617699896916747, 0.06467730004806072, 0.0376535999821499, 0.06780520000029355, 0.10548840009141713, 0.048057999927550554, 0.074228800018318, 12.667922000051476, 0.00021659990306943655, 14.412761599989608, 0.04744999995455146, 21.562651499989443, 0.047756999963894486, 0.09557359991595149, 9.916481099906377]",0,,,,,,,,,,,,,,,,,,,,,,,,,,,,,,,,,,,,,,,,,,,,,,,,,,,,,,,,,,,,,,,,,,,,,,,,,,,,,,,,,,,,,,,,,,,,,,,,,,,,,,,,,,,,,,,,,,,,,,,,,,,,ZPRAQF,train_x,blue_star,bottom_left,2025-09-05_17h29.30.823,HideSeek_v1,2022.2.5,59.99448049370354,
,,,,,,,,,,,,,,,3,0,3,0,3,0,3,0,,,,,,,,,,,,,,,,,,,,,,,,,,,,,,,conditions/schedules/train_x_first/blue_star_00/bottom_left/instructions/Slide20.png,conditions/schedules/train_x_first/blue_star_00/bottom_left/instructions/Audio20.wav,1172.089309599949,1172.0816498999018,20,"[2.850459299981594, 18.148223500000313, 17.16323479998391, 19.1854258000385, 4.555508199962787, 5.370316099957563, 5.6315761000150815, 11.350634000031278, 5.789844600018114, 6.644274600083008, 9.169486799975857, 12.667913099983707, 20.02763689996209, 14.41275419993326, 30.578935700003058, 21.562644099933095, 54.08287799998652, 5.963862800039351, 9.9164732999634, 13.818312400020659]","[0.00022060004994273186, 0.04902909998781979, 0.0002145000034943223, 0.01503679994493723, 0.014617699896916747, 0.06467730004806072, 0.0376535999821499, 0.06780520000029355, 0.10548840009141713, 0.048057999927550554, 0.074228800018318, 12.667922000051476, 0.00021659990306943655, 14.412761599989608, 0.04744999995455146, 21.562651499989443, 0.047756999963894486, 0.09557359991595149, 0.03604599996469915, 13.818320099962875]",0,,,,,,,,,,,,,,,,,,,,,,,,,,,,,,,,,,,,,,,,,,,,,,,,,,,,,,,,,,,,,,,,,,,,,,,,,,,,,,,,,,,,,,,,,,,,,,,,,,,,,,,,,,,,,,,,,,,,,,,,,,,,ZPRAQF,train_x,blue_star,bottom_left,2025-09-05_17h29.30.823,HideSeek_v1,2022.2.5,59.99448049370354,
1,0,3,0,8,0,5,66,2,instr_dim1_2,,,,,,3,0,3,0,,,,,0,0,0,0,,,,,,,,,,,,,,,,,,,,,,,,,,,,,,,,,,,,,stimuli/alien_stimuli/66.png,conditions/schedules/train_x_first/blue_star_00/bottom_left/inputInstr_2.xlsx,stimuli/alien_stimuli/66.png,1186.0040045999922,1186.0040045999922,1186.0040045999922,1186.0040045999922,1185.9935533998535,return,7.7799812000012025,"[-0.16, -0.08, 0, 0.08, 0.16, 0.24, 0.32, 0.4, 0.48, 0.56]","[-0.4, -0.32, -0.24, -0.16, -0.08, 0, 0.08, 0.16, 0.24, 0.32]",8,3,0,0,0.4,0.0,1193.9361895999173,1193.9361895999173,1193.9361895999173,1193.9361895999173,1193.9361895999173,1193.9361895999173,1193.9361895999173,1193.9327741998948,13.02882469992619,return,12.877450800035149,stimuli/alien_stimuli/66.png,66,0,1,,,,,,,,,,,,,,,,,,,,,,,,,,,,,,,,,,,,,,,,,,,,,,,,,,,,,,,,,,,,,,,,,,,,,,,,,,,,,,,,,,,,,,,,,ZPRAQF,train_x,blue_star,bottom_left,2025-09-05_17h29.30.823,HideSeek_v1,2022.2.5,59.99448049370354,
,,,,,,,,,,,30,,,,3,0,3,0,,,,,,,,,,,,,,,,,,,,,,,,,,,,,,,,,,,,,,,,,,,,,,,,,,,,,,,,,,,,,,,,,,,,,,,,,,,,,,21,0.7,0.8333333333333335,1,99,2,30,0,conditions/schedules/train_x_first/blue_star_00/bottom_left/inputTrain_2.1.xlsx,99,1,2,1,0,,,,,,,,,,,,,,,,,,,,,,,,,,,,,,,,,,,,,,,,,,,,,,,,,,,,,,,,,,,,,,,,,,,,,,,,,,,ZPRAQF,train_x,blue_star,bottom_left,2025-09-05_17h29.30.823,HideSeek_v1,2022.2.5,59.99448049370354,
,,,,,,,,,,,,,,,4,0,4,0,0,0,0,0,,,,,,,,,,,,,,,,,,,,,,,,,,,,,,,conditions/schedules/train_x_first/blue_star_00/bottom_left/instructions/Slide21.png,conditions/schedules/train_x_first/blue_star_00/bottom_left/instructions/Audio21.wav,1207.0034038999584,1206.9939724998549,21,"[2.850459299981594, 18.148223500000313, 17.16323479998391, 19.1854258000385, 4.555508199962787, 5.370316099957563, 5.6315761000150815, 11.350634000031278, 5.789844600018114, 6.644274600083008, 9.169486799975857, 12.667913099983707, 20.02763689996209, 14.41275419993326, 30.578935700003058, 21.562644099933095, 54.08287799998652, 5.963862800039351, 9.9164732999634, 13.818312400020659, 16.952416600077413]","[0.00022060004994273186, 0.04902909998781979, 0.0002145000034943223, 0.01503679994493723, 0.014617699896916747, 0.06467730004806072, 0.0376535999821499, 0.06780520000029355, 0.10548840009141713, 0.048057999927550554, 0.074228800018318, 12.667922000051476, 0.00021659990306943655, 14.412761599989608, 0.04744999995455146, 21.562651499989443, 0.047756999963894486, 0.09557359991595149, 0.03604599996469915, 13.818320099962875, 16.95242510002572]",0,,,,,,,,,,,,,,,,,,,,,,,,,,,,,,,,,,,,,,,,,,,,,,,,,,,,,,,,,,,,,,,,,,,,,,,,,,,,,,,,,,,,,,,,,,,,,,,,,,,,,,,,,,,,,,,,,,,,,,,,,,,,ZPRAQF,train_x,blue_star,bottom_left,2025-09-05_17h29.30.823,HideSeek_v1,2022.2.5,59.99448049370354,
2,2,3,2,3,0,0,61,2,instr_dim1_2,,,,,,4,0,4,0,,,,,0,0,0,0,,,,,,,,,,,,,,,,,,,,,,,,,,,,,,,,,,,,,stimuli/alien_stimuli/61.png,conditions/schedules/train_x_first/blue_star_00/bottom_left/inputInstr_2.xlsx,stimuli/alien_stimuli/61.png,1224.0561942999484,1224.0561942999484,1224.0561942999484,1224.0561942999484,1224.0580554998946,return,5.997769900015555,"[-0.16, -0.08, 0, 0.08, 0.16, 0.24, 0.32, 0.4, 0.48, 0.56]","[-0.4, -0.32, -0.24, -0.16, -0.08, 0, 0.08, 0.16, 0.24, 0.32]",3,3,2,2,0.0,0.0,1230.1999468998984,1230.1999468998984,1230.1999468998984,1230.1999468998984,1230.1999468998984,1230.1999468998984,1230.1999468998984,1230.1963707998163,7.690838299924508,return,7.540565099916421,stimuli/alien_stimuli/61.png,61,2,2,,,,,,,,,,,,,,,,,,,,,,,,,,,,,,,,,,,,,,,,,,,,,,,,,,,,,,,,,,,,,,,,,,,,,,,,,,,,,,,,,,,,,,,,,ZPRAQF,train_x,blue_star,bottom_left,2025-09-05_17h29.30.823,HideSeek_v1,2022.2.5,59.99448049370354,
,,,,,,,,,,,30,,,,4,0,4,0,,,,,,,,,,,,,,,,,,,,,,,,,,,,,,,,,,,,,,,,,,,,,,,,,,,,,,,,,,,,,,,,,,,,,,,,,,,,,,21,0.7,0.8333333333333335,1,99,2,30,0,conditions/schedules/train_x_first/blue_star_00/bottom_left/inputTrain_2.1.xlsx,99,1,2,1,0,,,,,,,,,,,,,,,,,,,,,,,,,,,,,,,,,,,,,,,,,,,,,,,,,,,,,,,,,,,,,,,,,,,,,,,,,,,ZPRAQF,train_x,blue_star,bottom_left,2025-09-05_17h29.30.823,HideSeek_v1,2022.2.5,59.99448049370354,
,,,,,,,,,,,,,,,5,0,5,0,0,0,0,0,,,,,,,,,,,,,,,,,,,,,,,,,,,,,,,conditions/schedules/train_x_first/blue_star_00/bottom_left/instructions/Slide22.png,conditions/schedules/train_x_first/blue_star_00/bottom_left/instructions/Audio22.wav,1238.003528399975,1238.0029278998263,22,"[2.850459299981594, 18.148223500000313, 17.16323479998391, 19.1854258000385, 4.555508199962787, 5.370316099957563, 5.6315761000150815, 11.350634000031278, 5.789844600018114, 6.644274600083008, 9.169486799975857, 12.667913099983707, 20.02763689996209, 14.41275419993326, 30.578935700003058, 21.562644099933095, 54.08287799998652, 5.963862800039351, 9.9164732999634, 13.818312400020659, 16.952416600077413, 43.48320529994089]","[0.00022060004994273186, 0.04902909998781979, 0.0002145000034943223, 0.01503679994493723, 0.014617699896916747, 0.06467730004806072, 0.0376535999821499, 0.06780520000029355, 0.10548840009141713, 0.048057999927550554, 0.074228800018318, 12.667922000051476, 0.00021659990306943655, 14.412761599989608, 0.04744999995455146, 21.562651499989443, 0.047756999963894486, 0.09557359991595149, 0.03604599996469915, 13.818320099962875, 16.95242510002572, 43.483213499886915]",0,,,,,,,,,,,,,,,,,,,,,,,,,,,,,,,,,,,,,,,,,,,,,,,,,,,,,,,,,,,,,,,,,,,,,,,,,,,,,,,,,,,,,,,,,,,,,,,,,,,,,,,,,,,,,,,,,,,,,,,,,,,,ZPRAQF,train_x,blue_star,bottom_left,2025-09-05_17h29.30.823,HideSeek_v1,2022.2.5,59.99448049370354,
,0,0,0,4,0,4,65,,train_dim1_2,1,30,,,,5,0,5,0,,,,,,,,,0,0,0,0,0,0,0,0,0,0,0,0,,,,,,,,,,,,,,,,,,,,,,,,,stimuli/alien_stimuli/65.png,,,,,,,,,,,,,,,,,,,,,,,,,,,,,,,,,,,,,,,30,,,,,,,,1281.6013755999738,1281.6013755999738,1281.6013755999738,1281.6013755999738,1281.6013755999738,up,3.7107448999304324,0,0,0,99,-0.16,-0.32,up,3.5939802000066265,,,,,,,,,,,,,,,,,,,,,,,,,,,,,,,,,,,,,,,,,,,,,,,,,,,,,,,,,,,,ZPRAQF,train_x,blue_star,bottom_left,2025-09-05_17h29.30.823,HideSeek_v1,2022.2.5,59.99448049370354,
,0,0,0,4,0,4,65,,train_dim1_2,1,30,,,,5,0,5,0,,,,,,,,,0,0,0,0,0,0,0,0,1,0,1,0,,,,,,,,,,,,,,,,,,,,,,,,,,,,,,,,,,,,,,,,,,,,,,,,,,,,,,,,,,,,,,,,30,,,,,,,,1285.29270859994,1285.29270859994,1285.29270859994,1285.29270859994,1285.29270859994,up,0.541060599964112,0,0,0,99,-0.16,-0.24,up,0.4516823999583721,,,,,,,,,,,,,,,,,,,,,,,,,,,,,,,,,,,,,,,,,,,,,,,,,,,,,,,,,,,,ZPRAQF,train_x,blue_star,bottom_left,2025-09-05_17h29.30.823,HideSeek_v1,2022.2.5,59.99448049370354,
,0,0,0,4,0,4,65,,train_dim1_2,1,30,,,,5,0,5,0,,,,,,,,,0,0,0,0,0,0,0,0,2,0,2,0,,,,,,,,,,,,,,,,,,,,,,,,,,,,,,,,,,,,,,,,,,,,,,,,,,,,,,,,,,,,,,,,30,,,,,,,,1285.841449599946,1285.841449599946,1285.841449599946,1285.841449599946,1285.841449599946,up,0.5421729000518098,0,0,0,99,-0.16,-0.15999999999999998,up,0.46187670005019754,,,,,,,,,,,,,,,,,,,,,,,,,,,,,,,,,,,,,,,,,,,,,,,,,,,,,,,,,,,,ZPRAQF,train_x,blue_star,bottom_left,2025-09-05_17h29.30.823,HideSeek_v1,2022.2.5,59.99448049370354,
,0,0,0,4,0,4,65,,train_dim1_2,1,30,,,,5,0,5,0,,,,,,,,,0,0,0,0,0,0,0,0,3,0,3,0,,,,,,,,,,,,,,,,,,,,,,,,,,,,,,,,,,,,,,,,,,,,,,,,,,,,,,,,,,,,,,,,30,,,,,,,,1286.3928557999898,1286.3928557999898,1286.3928557999898,1286.3928557999898,1286.3928557999898,up,0.5930585999740288,0,0,0,99,-0.16,-0.07999999999999997,up,0.5180664000799879,,,,,,,,,,,,,,,,,,,,,,,,,,,,,,,,,,,,,,,,,,,,,,,,,,,,,,,,,,,,ZPRAQF,train_x,blue_star,bottom_left,2025-09-05_17h29.30.823,HideSeek_v1,2022.2.5,59.99448049370354,
,0,0,0,4,0,4,65,,train_dim1_2,1,30,,,,5,0,5,0,,,,,,,,,0,0,0,0,0,0,0,0,4,0,4,0,,,,,,,,,,,,,,,,,,,,,,,,,,,,,,,,,,,,,,,,,,,,,,,,,,,,,,,,,,,,,,,,30,,,,,,,,1286.9922100999393,1286.9922100999393,1286.9922100999393,1286.9922100999393,1286.9922100999393,up,0.6258020999375731,0,0,0,99,-0.16,2.7755575615628914e-17,up,0.5447719999356195,,,,,,,,,,,,,,,,,,,,,,,,,,,,,,,,,,,,,,,,,,,,,,,,,,,,,,,,,,,,ZPRAQF,train_x,blue_star,bottom_left,2025-09-05_17h29.30.823,HideSeek_v1,2022.2.5,59.99448049370354,
,0,0,0,4,0,4,65,,train_dim1_2,1,30,,,,5,0,5,0,,,,,,,,,0,0,0,0,0,0,0,0,5,0,5,0,,,,,,,,,,,,,,,,,,,,,,,,,,,,,,,,,,,,,,,,,,,,,,,,,,,,,,,,,,,,,,,,30,,,,,,,,1287.625706999912,1287.625706999912,1287.625706999912,1287.625706999912,1287.625706999912,return,0.7600788000272587,0,1,0,0,-0.16,2.7755575615628914e-17,return,0.6835068999789655,5,82,-0.16,2.7755575615628914e-17,,,,,,,,,,,,,,,,,,,,,,,,,,,,,,,,,,,,,,,,,,,,,,,,,,,,,,,,ZPRAQF,train_x,blue_star,bottom_left,2025-09-05_17h29.30.823,HideSeek_v1,2022.2.5,59.99448049370354,
,3,2,3,7,0,5,66,,train_dim1_2,2,30,,,,5,0,5,0,,,,,,,,,0,0,0,0,0,1,1,1,0,0,0,0,,,,,,,,,,,,,,,,,,,,,,,,,stimuli/alien_stimuli/66.png,,,,,,,,,,,,,,,,,,,,,,,,,,,,,stimuli/alien_stimuli/65.png,65,0,3,,,,,,,30,,,,,,,,1294.9041651999578,1294.9041651999578,1294.9041651999578,1294.9041651999578,1294.9041651999578,up,7.962394599919207,0,1,0,99,0.08,-0.15999999999999998,up,7.88197330001276,,,,,1293.348750499892,1294.9041651999578,-0.16,-0.08,0.32,0.0,-0.24000000000000002,-0.16,-0.16,-0.16,-0.08,1289.981122499914,1289.981122499914,1289.981122499914,1289.981122499914,1289.981122499914,1289.981122499914,1289.981122499914,1289.981122499914,1289.9625561998926,3.5053963999962434,return,3.348585700034164,,,,,,,,,,,,,,,,,,,,,,,,,,,,,,,,,ZPRAQF,train_x,blue_star,bottom_left,2025-09-05_17h29.30.823,HideSeek_v1,2022.2.5,59.99448049370354,
,3,2,3,7,0,5,66,,train_dim1_2,2,30,,,,5,0,5,0,,,,,,,,,0,0,0,0,0,1,1,1,1,0,1,0,,,,,,,,,,,,,,,,,,,,,,,,,,,,,,,,,,,,,,,,,,,,,,,,,,,,,,,,,,,,,,,,30,,,,,,,,1302.8758149999194,1302.8758149999194,1302.8758149999194,1302.8758149999194,1302.8758149999194,up,0.5897345999255776,0,1,0,99,0.08,-0.07999999999999997,up,0.5029057000065222,,,,,,,,,,,,,,,,,,,,,,,,,,,,,,,,,,,,,,,,,,,,,,,,,,,,,,,,,,,,ZPRAQF,train_x,blue_star,bottom_left,2025-09-05_17h29.30.823,HideSeek_v1,2022.2.5,59.99448049370354,
,3,2,3,7,0,5,66,,train_dim1_2,2,30,,,,5,0,5,0,,,,,,,,,0,0,0,0,0,1,1,1,2,0,2,0,,,,,,,,,,,,,,,,,,,,,,,,,,,,,,,,,,,,,,,,,,,,,,,,,,,,,,,,,,,,,,,,30,,,,,,,,1303.4750210999046,1303.4750210999046,1303.4750210999046,1303.4750210999046,1303.4750210999046,up,0.5429811000358313,0,1,0,99,0.08,2.7755575615628914e-17,up,0.4506822000257671,,,,,,,,,,,,,,,,,,,,,,,,,,,,,,,,,,,,,,,,,,,,,,,,,,,,,,,,,,,,ZPRAQF,train_x,blue_star,bottom_left,2025-09-05_17h29.30.823,HideSeek_v1,2022.2.5,59.99448049370354,
,3,2,3,7,0,5,66,,train_dim1_2,2,30,,,,5,0,5,0,,,,,,,,,0,0,0,0,0,1,1,1,3,0,3,0,,,,,,,,,,,,,,,,,,,,,,,,,,,,,,,,,,,,,,,,,,,,,,,,,,,,,,,,,,,,,,,,30,,,,,,,,1304.0222389999544,1304.0222389999544,1304.0222389999544,1304.0222389999544,1304.0222389999544,up,0.6936306999996305,0,1,0,99,0.08,0.08000000000000003,up,0.611237799981609,,,,,,,,,,,,,,,,,,,,,,,,,,,,,,,,,,,,,,,,,,,,,,,,,,,,,,,,,,,,ZPRAQF,train_x,blue_star,bottom_left,2025-09-05_17h29.30.823,HideSeek_v1,2022.2.5,59.99448049370354,
,3,2,3,7,0,5,66,,train_dim1_2,2,30,,,,5,0,5,0,,,,,,,,,0,0,0,0,0,1,1,1,4,0,4,0,,,,,,,,,,,,,,,,,,,,,,,,,,,,,,,,,,,,,,,,,,,,,,,,,,,,,,,,,,,,,,,,30,,,,,,,,1304.7300346998964,1304.7300346998964,1304.7300346998964,1304.7300346998964,1304.7300346998964,return,0.7863774000434205,0,1,0,0,0.08,0.08000000000000003,return,0.7101052000652999,9,82,0.08,0.08000000000000003,,,,,,,,,,,,,,,,,,,,,,,,,,,,,,,,,,,,,,,,,,,,,,,,,,,,,,,,ZPRAQF,train_x,blue_star,bottom_left,2025-09-05_17h29.30.823,HideSeek_v1,2022.2.5,59.99448049370354,
