trialInstr,x_fixStart,y_fixStart,x_corrSteps,y_corrSteps,x_nrSteps,y_nrSteps,alienID,trialLength,version,trialTrain,praclen,testlen,trial_label,break_on_off,beforeExpLoop.thisRepN,beforeExpLoop.thisTrialN,beforeExpLoop.thisN,beforeExpLoop.thisIndex,mini_instr_trials.thisRepN,mini_instr_trials.thisTrialN,mini_instr_trials.thisN,mini_instr_trials.thisIndex,instrLoop.thisRepN,instrLoop.thisTrialN,instrLoop.thisN,instrLoop.thisIndex,repeat_prac.thisRepN,repeat_prac.thisTrialN,repeat_prac.thisN,repeat_prac.thisIndex,trainLoop.thisRepN,trainLoop.thisTrialN,trainLoop.thisN,trainLoop.thisIndex,moveLoop_train.thisRepN,moveLoop_train.thisTrialN,moveLoop_train.thisN,moveLoop_train.thisIndex,experiment.thisRepN,experiment.thisTrialN,experiment.thisN,experiment.thisIndex,moveLoop_test.thisRepN,moveLoop_test.thisTrialN,moveLoop_test.thisN,moveLoop_test.thisIndex,mini_instr2_trials.thisRepN,mini_instr2_trials.thisTrialN,mini_instr2_trials.thisN,mini_instr2_trials.thisIndex,start_all_time,url,slideStim,audioStim,slides.started,sounds.started,nextButton.numClicks,nextButton.timesOn,nextButton.timesOff,prev_but.numClicks,prev_but.timesOn,prev_but.timesOff,alienStim,instrFile,alienStim_instr,gridImage_instr.started,startPos_3.started,key_instr.started,alienImage_3.started,sounds_1.started,key_instr.keys,key_instr.rt,all_x,all_y,FBy_corrSteps,FBy_fixStart,FBx_corrSteps,FBx_fixStart,FBy_pathSize_check,FBx_pathSize_check,gridImage_9.started,alienImageFB_3.started,startPosFB_3.started,keyFB_3.started,pathLine_ydir_2.started,pathLine_xdir_2.started,alienFace_3.started,sounds_2.started,RTFB_instr,keyFB_3.keys,keyFB_3.rt,draw_alienStim,draw_alienID,test_x,nrepcount,perfthres,percthres,earlierperf,earlystop,nextPrac,fileidx,praclen,saveACC_train,pracFile,nextPrac_train,addNrep,fileidx_endr,repExp,showearly,gridImage_4.started,startPos.started,movePos.started,key_resp.started,alienImage.started,buttonPress_train,RTchoice_train,cumAcctrain,aCorr,saveACC_choice,corrAns,x_movePos_end,y_movePos_end,key_resp.keys,key_resp.rt,wLy_dir,wLx_dir,x_movePos,y_movePos,text_2.started,text_2.stopped,aft_x_corrPos,aft_y_corrPos,y_pathSize_check,x_pathSize_check,y_pathdirY,x_pathdirY,x_pathdirX,x_corrPos,y_corrPos,gridImage_6.started,alienImageFB_2.started,startPosFB_2.started,movePosFB_2.started,keyFB_2.started,pathLine_xdir.started,pathLine_ydir.started,alienFace.started,sounds_4.started,RT_FBtrain,keyFB_2.keys,keyFB_2.rt,saveACC_pre,ACC,within_saveACC_train,earlystop_wloop,cumAcctrain_check,gridImage_3.started,alienImage_test.started,startPos_test.started,movePos_test.started,key_resp_test.started,wLy_dir_test,wLx_dir_test,buttonPress_test,RTchoice_test,cumAcctest,corrAns_test,key_resp_test.keys,key_resp_test.rt,text_3.started,text_3.stopped,total_time,end_all_time,key_resp_3.keys,slides_2.started,sounds_3.started,nextButton_2.numClicks,nextButton_2.timesOn,nextButton_2.timesOff,prev_but_2.numClicks,prev_but_2.timesOn,prev_but_2.timesOff,bye.started,participant,train_first,00_coordinate,starting corner,date,expName,psychopyVersion,frameRate,
,,,,,,,,,,,,,,,0,0,0,0,0,0,0,0,,,,,,,,,,,,,,,,,,,,,,,,,,,,,start_all_time,testround,conditions/schedules/train_x_first/red_square_00/bottom_right/instructions/Slide1.png,conditions/schedules/train_x_first/red_square_00/bottom_right/instructions/Audio1.wav,1281.3445692999994,1281.295902459998,1,[4.233679999997548],[4.233686899999157],0,,,,,,,,,,,,,,,,,,,,,,,,,,,,,,,,,,,,,,,,,,,,,,,,,,,,,,,,,,,,,,,,,,,,,,,,,,,,,,,,,,,,,,,,,,,,,,,,,,,,,,,,,,,,,,,,,,,,,,,,,,,,ZX8Z3G,train_x,red_square,bottom_right,2025-06-14_16h13.25.745,HideSeek_v1,2022.2.5,59.989549819851696,
,,,,,,,,,,,,,,,0,0,0,0,1,0,1,0,,,,,,,,,,,,,,,,,,,,,,,,,,,,,,,conditions/schedules/train_x_first/red_square_00/bottom_right/instructions/Slide2.png,conditions/schedules/train_x_first/red_square_00/bottom_right/instructions/Audio2.wav,1285.598401299998,1285.586418740001,2,"[4.233679999997548, 17.83399759999884]","[0.03579829999944195, 17.83400509999774]",0,,,,,,,,,,,,,,,,,,,,,,,,,,,,,,,,,,,,,,,,,,,,,,,,,,,,,,,,,,,,,,,,,,,,,,,,,,,,,,,,,,,,,,,,,,,,,,,,,,,,,,,,,,,,,,,,,,,,,,,,,,,,ZX8Z3G,train_x,red_square,bottom_right,2025-06-14_16h13.25.745,HideSeek_v1,2022.2.5,59.989549819851696,
,,,,,,,,,,,,,,,0,0,0,0,2,0,2,0,,,,,,,,,,,,,,,,,,,,,,,,,,,,,,,conditions/schedules/train_x_first/red_square_00/bottom_right/instructions/Slide3.png,conditions/schedules/train_x_first/red_square_00/bottom_right/instructions/Audio3.wav,1303.4986962000003,1303.501275749999,3,"[4.233679999997548, 17.83399759999884, 16.446889899998496]","[0.03579829999944195, 0.06665970000176458, 16.446897500001796]",0,,,,,,,,,,,,,,,,,,,,,,,,,,,,,,,,,,,,,,,,,,,,,,,,,,,,,,,,,,,,,,,,,,,,,,,,,,,,,,,,,,,,,,,,,,,,,,,,,,,,,,,,,,,,,,,,,,,,,,,,,,,,ZX8Z3G,train_x,red_square,bottom_right,2025-06-14_16h13.25.745,HideSeek_v1,2022.2.5,59.989549819851696,
,,,,,,,,,,,,,,,0,0,0,0,3,0,3,0,,,,,,,,,,,,,,,,,,,,,,,,,,,,,,,conditions/schedules/train_x_first/red_square_00/bottom_right/instructions/Slide4.png,conditions/schedules/train_x_first/red_square_00/bottom_right/instructions/Audio4.wav,1320.0247697999985,1320.0147297499989,4,"[4.233679999997548, 17.83399759999884, 16.446889899998496, 19.086475600000995]","[0.03579829999944195, 0.06665970000176458, 0.0545127000004868, 19.086483800001588]",0,,,,,,,,,,,,,,,,,,,,,,,,,,,,,,,,,,,,,,,,,,,,,,,,,,,,,,,,,,,,,,,,,,,,,,,,,,,,,,,,,,,,,,,,,,,,,,,,,,,,,,,,,,,,,,,,,,,,,,,,,,,,ZX8Z3G,train_x,red_square,bottom_right,2025-06-14_16h13.25.745,HideSeek_v1,2022.2.5,59.989549819851696,
,,,,,,,,,,,,,,,0,0,0,0,4,0,4,0,,,,,,,,,,,,,,,,,,,,,,,,,,,,,,,conditions/schedules/train_x_first/red_square_00/bottom_right/instructions/Slide5.png,conditions/schedules/train_x_first/red_square_00/bottom_right/instructions/Audio5.wav,1339.1769915000004,1339.16378444,5,"[4.233679999997548, 17.83399759999884, 16.446889899998496, 19.086475600000995, 4.805322799998976]","[0.03579829999944195, 0.06665970000176458, 0.0545127000004868, 0.06830840000111493, 4.805329899998469]",0,,,,,,,,,,,,,,,,,,,,,,,,,,,,,,,,,,,,,,,,,,,,,,,,,,,,,,,,,,,,,,,,,,,,,,,,,,,,,,,,,,,,,,,,,,,,,,,,,,,,,,,,,,,,,,,,,,,,,,,,,,,,ZX8Z3G,train_x,red_square,bottom_right,2025-06-14_16h13.25.745,HideSeek_v1,2022.2.5,59.989549819851696,
,,,,,,,,,,,,,,,0,0,0,0,5,0,5,0,,,,,,,,,,,,,,,,,,,,,,,,,,,,,,,conditions/schedules/train_x_first/red_square_00/bottom_right/instructions/Slide6.png,conditions/schedules/train_x_first/red_square_00/bottom_right/instructions/Audio6.wav,1344.0350074999988,1344.0345373399985,6,"[4.233679999997548, 17.83399759999884, 16.446889899998496, 19.086475600000995, 4.805322799998976, 5.184424899998703]","[0.03579829999944195, 0.06665970000176458, 0.0545127000004868, 0.06830840000111493, 0.08027059999949415, 5.184432199999719]",0,,,,,,,,,,,,,,,,,,,,,,,,,,,,,,,,,,,,,,,,,,,,,,,,,,,,,,,,,,,,,,,,,,,,,,,,,,,,,,,,,,,,,,,,,,,,,,,,,,,,,,,,,,,,,,,,,,,,,,,,,,,,ZX8Z3G,train_x,red_square,bottom_right,2025-06-14_16h13.25.745,HideSeek_v1,2022.2.5,59.989549819851696,
,,,,,,,,,,,,,,,0,0,0,0,6,0,6,0,,,,,,,,,,,,,,,,,,,,,,,,,,,,,,,conditions/schedules/train_x_first/red_square_00/bottom_right/instructions/Slide7.png,conditions/schedules/train_x_first/red_square_00/bottom_right/instructions/Audio7.wav,1349.271022099998,1349.272547639998,7,"[4.233679999997548, 17.83399759999884, 16.446889899998496, 19.086475600000995, 4.805322799998976, 5.184424899998703, 5.603338699998858]","[0.03579829999944195, 0.06665970000176458, 0.0545127000004868, 0.06830840000111493, 0.08027059999949415, 0.21549949999825913, 5.603346200001397]",0,,,,,,,,,,,,,,,,,,,,,,,,,,,,,,,,,,,,,,,,,,,,,,,,,,,,,,,,,,,,,,,,,,,,,,,,,,,,,,,,,,,,,,,,,,,,,,,,,,,,,,,,,,,,,,,,,,,,,,,,,,,,ZX8Z3G,train_x,red_square,bottom_right,2025-06-14_16h13.25.745,HideSeek_v1,2022.2.5,59.989549819851696,
,,,,,,,,,,,,,,,0,0,0,0,7,0,7,0,,,,,,,,,,,,,,,,,,,,,,,,,,,,,,,conditions/schedules/train_x_first/red_square_00/bottom_right/instructions/Slide8.png,conditions/schedules/train_x_first/red_square_00/bottom_right/instructions/Audio8.wav,1354.9552719999992,1354.9438302500002,8,"[4.233679999997548, 17.83399759999884, 16.446889899998496, 19.086475600000995, 4.805322799998976, 5.184424899998703, 5.603338699998858, 11.565710200000467]","[0.03579829999944195, 0.06665970000176458, 0.0545127000004868, 0.06830840000111493, 0.08027059999949415, 0.21549949999825913, 0.039351700001134304, 11.56571780000013]",0,,,,,,,,,,,,,,,,,,,,,,,,,,,,,,,,,,,,,,,,,,,,,,,,,,,,,,,,,,,,,,,,,,,,,,,,,,,,,,,,,,,,,,,,,,,,,,,,,,,,,,,,,,,,,,,,,,,,,,,,,,,,ZX8Z3G,train_x,red_square,bottom_right,2025-06-14_16h13.25.745,HideSeek_v1,2022.2.5,59.989549819851696,
,,,,,,,,,,,,,,,0,0,0,0,8,0,8,0,,,,,,,,,,,,,,,,,,,,,,,,,,,,,,,conditions/schedules/train_x_first/red_square_00/bottom_right/instructions/Slide9.png,conditions/schedules/train_x_first/red_square_00/bottom_right/instructions/Audio9.wav,1366.5851105000002,1366.5867941499982,9,"[4.233679999997548, 17.83399759999884, 16.446889899998496, 19.086475600000995, 4.805322799998976, 5.184424899998703, 5.603338699998858, 11.565710200000467, 6.50517260000197]","[0.03579829999944195, 0.06665970000176458, 0.0545127000004868, 0.06830840000111493, 0.08027059999949415, 0.21549949999825913, 0.039351700001134304, 0.11658230000102776, 6.5051853000004485]",0,,,,,,,,,,,,,,,,,,,,,,,,,,,,,,,,,,,,,,,,,,,,,,,,,,,,,,,,,,,,,,,,,,,,,,,,,,,,,,,,,,,,,,,,,,,,,,,,,,,,,,,,,,,,,,,,,,,,,,,,,,,,ZX8Z3G,train_x,red_square,bottom_right,2025-06-14_16h13.25.745,HideSeek_v1,2022.2.5,59.989549819851696,
,,,,,,,,,,,,,,,0,0,0,0,9,0,9,0,,,,,,,,,,,,,,,,,,,,,,,,,,,,,,,conditions/schedules/train_x_first/red_square_00/bottom_right/instructions/Slide10.png,conditions/schedules/train_x_first/red_square_00/bottom_right/instructions/Audio10.wav,1373.1418983000003,1373.1422596399977,10,"[4.233679999997548, 17.83399759999884, 16.446889899998496, 19.086475600000995, 4.805322799998976, 5.184424899998703, 5.603338699998858, 11.565710200000467, 6.50517260000197, 7.103667499999574]","[0.03579829999944195, 0.06665970000176458, 0.0545127000004868, 0.06830840000111493, 0.08027059999949415, 0.21549949999825913, 0.039351700001134304, 0.11658230000102776, 0.0646325000016077, 7.10367590000169]",0,,,,,,,,,,,,,,,,,,,,,,,,,,,,,,,,,,,,,,,,,,,,,,,,,,,,,,,,,,,,,,,,,,,,,,,,,,,,,,,,,,,,,,,,,,,,,,,,,,,,,,,,,,,,,,,,,,,,,,,,,,,,ZX8Z3G,train_x,red_square,bottom_right,2025-06-14_16h13.25.745,HideSeek_v1,2022.2.5,59.989549819851696,
,,,,,,,,,,,,,,,0,0,0,0,10,0,10,0,,,,,,,,,,,,,,,,,,,,,,,,,,,,,,,conditions/schedules/train_x_first/red_square_00/bottom_right/instructions/Slide11.png,conditions/schedules/train_x_first/red_square_00/bottom_right/instructions/Audio11.wav,1380.314546499998,1380.3147192499982,11,"[4.233679999997548, 17.83399759999884, 16.446889899998496, 19.086475600000995, 4.805322799998976, 5.184424899998703, 5.603338699998858, 11.565710200000467, 6.50517260000197, 7.103667499999574, 9.90597809999963]","[0.03579829999944195, 0.06665970000176458, 0.0545127000004868, 0.06830840000111493, 0.08027059999949415, 0.21549949999825913, 0.039351700001134304, 0.11658230000102776, 0.0646325000016077, 0.08105500000237953, 9.905986000001576]",0,,,,,,,,,,,,,,,,,,,,,,,,,,,,,,,,,,,,,,,,,,,,,,,,,,,,,,,,,,,,,,,,,,,,,,,,,,,,,,,,,,,,,,,,,,,,,,,,,,,,,,,,,,,,,,,,,,,,,,,,,,,,ZX8Z3G,train_x,red_square,bottom_right,2025-06-14_16h13.25.745,HideSeek_v1,2022.2.5,59.989549819851696,
,,,,,,,,,,,,,,,0,0,0,0,11,0,11,0,,,,,,,,,,,,,,,,,,,,,,,,,,,,,,,conditions/schedules/train_x_first/red_square_00/bottom_right/instructions/Slide12.png,conditions/schedules/train_x_first/red_square_00/bottom_right/instructions/Audio12.wav,1390.2738542999978,1390.273016339998,12,"[4.233679999997548, 17.83399759999884, 16.446889899998496, 19.086475600000995, 4.805322799998976, 5.184424899998703, 5.603338699998858, 11.565710200000467, 6.50517260000197, 7.103667499999574, 9.90597809999963, 13.524624099998618]","[0.03579829999944195, 0.06665970000176458, 0.0545127000004868, 0.06830840000111493, 0.08027059999949415, 0.21549949999825913, 0.039351700001134304, 0.11658230000102776, 0.0646325000016077, 0.08105500000237953, 0.06369999999878928, 13.524631399999635]",0,,,,,,,,,,,,,,,,,,,,,,,,,,,,,,,,,,,,,,,,,,,,,,,,,,,,,,,,,,,,,,,,,,,,,,,,,,,,,,,,,,,,,,,,,,,,,,,,,,,,,,,,,,,,,,,,,,,,,,,,,,,,ZX8Z3G,train_x,red_square,bottom_right,2025-06-14_16h13.25.745,HideSeek_v1,2022.2.5,59.989549819851696,
1,8,2,3,2,-5,0,66,2,instr_dim1_1,,,,,,0,0,0,0,,,,,0,0,0,0,,,,,,,,,,,,,,,,,,,,,,,,,,,,,,,,,,,,,stimuli/alien_stimuli/66.png,conditions/schedules/train_x_first/red_square_00/bottom_right/inputInstr_1.xlsx,stimuli/alien_stimuli/66.png,1403.9014266000013,1403.9014266000013,1403.9014266000013,1403.9014266000013,1403.9009993699988,return,11.842840600002091,"[-0.16, -0.08, 0, 0.08, 0.16, 0.24, 0.32, 0.4, 0.48, 0.56]","[-0.4, -0.32, -0.24, -0.16, -0.08, 0, 0.08, 0.16, 0.24, 0.32]",2,2,3,8,0.0,0.4,1415.8898235999986,1415.8898235999986,1415.8898235999986,1415.8898235999986,1415.8898235999986,1415.8898235999986,1415.8898235999986,1415.8773932800011,7.540387900000496,return,7.389202399997885,stimuli/alien_stimuli/66.png,66,8,1,,,,,,,,,,,,,,,,,,,,,,,,,,,,,,,,,,,,,,,,,,,,,,,,,,,,,,,,,,,,,,,,,,,,,,,,,,,,,,,,,,,,,,,,,ZX8Z3G,train_x,red_square,bottom_right,2025-06-14_16h13.25.745,HideSeek_v1,2022.2.5,59.989549819851696,
,,,,,,,,,,,30,,,,0,0,0,0,,,,,,,,,,,,,,,,,,,,,,,,,,,,,,,,,,,,,,,,,,,,,,,,,,,,,,,,,,,,,,,,,,,,,,,,,,,,,,21,0.7,0,0,99,1,30,0,conditions/schedules/train_x_first/red_square_00/bottom_right/inputTrain_1.1.xlsx,99,1,1,1,0,,,,,,,,,,,,,,,,,,,,,,,,,,,,,,,,,,,,,,,,,,,,,,,,,,,,,,,,,,,,,,,,,,,,,,,,,,,ZX8Z3G,train_x,red_square,bottom_right,2025-06-14_16h13.25.745,HideSeek_v1,2022.2.5,59.989549819851696,
,,,,,,,,,,,,,,,1,0,1,0,0,0,0,0,,,,,,,,,,,,,,,,,,,,,,,,,,,,,,,conditions/schedules/train_x_first/red_square_00/bottom_right/instructions/Slide13.png,conditions/schedules/train_x_first/red_square_00/bottom_right/instructions/Audio13.wav,1423.4296914999977,1423.417280880001,13,"[4.233679999997548, 17.83399759999884, 16.446889899998496, 19.086475600000995, 4.805322799998976, 5.184424899998703, 5.603338699998858, 11.565710200000467, 6.50517260000197, 7.103667499999574, 9.90597809999963, 13.524624099998618, 19.8348447999997]","[0.03579829999944195, 0.06665970000176458, 0.0545127000004868, 0.06830840000111493, 0.08027059999949415, 0.21549949999825913, 0.039351700001134304, 0.11658230000102776, 0.0646325000016077, 0.08105500000237953, 0.06369999999878928, 13.524631399999635, 19.834852399999363]",0,,,,,,,,,,,,,,,,,,,,,,,,,,,,,,,,,,,,,,,,,,,,,,,,,,,,,,,,,,,,,,,,,,,,,,,,,,,,,,,,,,,,,,,,,,,,,,,,,,,,,,,,,,,,,,,,,,,,,,,,,,,,ZX8Z3G,train_x,red_square,bottom_right,2025-06-14_16h13.25.745,HideSeek_v1,2022.2.5,59.989549819851696,
,,,,,,,,,,,,,,,1,0,1,0,1,0,1,0,,,,,,,,,,,,,,,,,,,,,,,,,,,,,,,conditions/schedules/train_x_first/red_square_00/bottom_right/instructions/Slide14.png,conditions/schedules/train_x_first/red_square_00/bottom_right/instructions/Audio14.wav,1443.3256342999994,1443.317219540001,14,"[4.233679999997548, 17.83399759999884, 16.446889899998496, 19.086475600000995, 4.805322799998976, 5.184424899998703, 5.603338699998858, 11.565710200000467, 6.50517260000197, 7.103667499999574, 9.90597809999963, 13.524624099998618, 19.8348447999997, 13.233098799999425]","[0.03579829999944195, 0.06665970000176458, 0.0545127000004868, 0.06830840000111493, 0.08027059999949415, 0.21549949999825913, 0.039351700001134304, 0.11658230000102776, 0.0646325000016077, 0.08105500000237953, 0.06369999999878928, 13.524631399999635, 0.03511900000012247, 13.233106099996803]",0,,,,,,,,,,,,,,,,,,,,,,,,,,,,,,,,,,,,,,,,,,,,,,,,,,,,,,,,,,,,,,,,,,,,,,,,,,,,,,,,,,,,,,,,,,,,,,,,,,,,,,,,,,,,,,,,,,,,,,,,,,,,ZX8Z3G,train_x,red_square,bottom_right,2025-06-14_16h13.25.745,HideSeek_v1,2022.2.5,59.989549819851696,
2,9,0,9,0,0,0,16,2,instr_dim1_1,,,,,,1,0,1,0,,,,,0,0,0,0,,,,,,,,,,,,,,,,,,,,,,,,,,,,,,,,,,,,,stimuli/alien_stimuli/16.png,conditions/schedules/train_x_first/red_square_00/bottom_right/inputInstr_1.xlsx,stimuli/alien_stimuli/16.png,1456.665069300001,1456.665069300001,1456.665069300001,1456.665069300001,1456.6614001700004,return,6.218505999997433,"[-0.16, -0.08, 0, 0.08, 0.16, 0.24, 0.32, 0.4, 0.48, 0.56]","[-0.4, -0.32, -0.24, -0.16, -0.08, 0, 0.08, 0.16, 0.24, 0.32]",0,0,9,9,0.0,0.0,1463.060914400001,1463.060914400001,1463.060914400001,1463.060914400001,1463.060914400001,1463.060914400001,1463.060914400001,1463.0498460900005,6.773237999997946,return,6.594872100002249,stimuli/alien_stimuli/16.png,16,9,2,,,,,,,,,,,,,,,,,,,,,,,,,,,,,,,,,,,,,,,,,,,,,,,,,,,,,,,,,,,,,,,,,,,,,,,,,,,,,,,,,,,,,,,,,ZX8Z3G,train_x,red_square,bottom_right,2025-06-14_16h13.25.745,HideSeek_v1,2022.2.5,59.989549819851696,
,,,,,,,,,,,30,,,,1,0,1,0,,,,,,,,,,,,,,,,,,,,,,,,,,,,,,,,,,,,,,,,,,,,,,,,,,,,,,,,,,,,,,,,,,,,,,,,,,,,,,21,0.7,0,0,99,1,30,0,conditions/schedules/train_x_first/red_square_00/bottom_right/inputTrain_1.1.xlsx,99,1,1,1,0,,,,,,,,,,,,,,,,,,,,,,,,,,,,,,,,,,,,,,,,,,,,,,,,,,,,,,,,,,,,,,,,,,,,,,,,,,,ZX8Z3G,train_x,red_square,bottom_right,2025-06-14_16h13.25.745,HideSeek_v1,2022.2.5,59.989549819851696,
,,,,,,,,,,,,,,,2,0,2,0,0,0,0,0,,,,,,,,,,,,,,,,,,,,,,,,,,,,,,,conditions/schedules/train_x_first/red_square_00/bottom_right/instructions/Slide15.png,conditions/schedules/train_x_first/red_square_00/bottom_right/instructions/Audio15.wav,1469.828633000001,1469.8221083899978,15,"[4.233679999997548, 17.83399759999884, 16.446889899998496, 19.086475600000995, 4.805322799998976, 5.184424899998703, 5.603338699998858, 11.565710200000467, 6.50517260000197, 7.103667499999574, 9.90597809999963, 13.524624099998618, 19.8348447999997, 13.233098799999425, 30.949961000002077]","[0.03579829999944195, 0.06665970000176458, 0.0545127000004868, 0.06830840000111493, 0.08027059999949415, 0.21549949999825913, 0.039351700001134304, 0.11658230000102776, 0.0646325000016077, 0.08105500000237953, 0.06369999999878928, 13.524631399999635, 0.03511900000012247, 13.233106099996803, 30.949968400000216]",0,,,,,,,,,,,,,,,,,,,,,,,,,,,,,,,,,,,,,,,,,,,,,,,,,,,,,,,,,,,,,,,,,,,,,,,,,,,,,,,,,,,,,,,,,,,,,,,,,,,,,,,,,,,,,,,,,,,,,,,,,,,,ZX8Z3G,train_x,red_square,bottom_right,2025-06-14_16h13.25.745,HideSeek_v1,2022.2.5,59.989549819851696,
,,,,,,,,,,,,,,,2,0,2,0,1,0,1,0,,,,,,,,,,,,,,,,,,,,,,,,,,,,,,,conditions/schedules/train_x_first/red_square_00/bottom_right/instructions/Slide16.png,conditions/schedules/train_x_first/red_square_00/bottom_right/instructions/Audio16.wav,1500.8415437000003,1500.8315107399983,16,"[4.233679999997548, 17.83399759999884, 16.446889899998496, 19.086475600000995, 4.805322799998976, 5.184424899998703, 5.603338699998858, 11.565710200000467, 6.50517260000197, 7.103667499999574, 9.90597809999963, 13.524624099998618, 19.8348447999997, 13.233098799999425, 30.949961000002077, 21.938971499999752]","[0.03579829999944195, 0.06665970000176458, 0.0545127000004868, 0.06830840000111493, 0.08027059999949415, 0.21549949999825913, 0.039351700001134304, 0.11658230000102776, 0.0646325000016077, 0.08105500000237953, 0.06369999999878928, 13.524631399999635, 0.03511900000012247, 13.233106099996803, 0.05989140000019688, 21.938979099999415]",0,,,,,,,,,,,,,,,,,,,,,,,,,,,,,,,,,,,,,,,,,,,,,,,,,,,,,,,,,,,,,,,,,,,,,,,,,,,,,,,,,,,,,,,,,,,,,,,,,,,,,,,,,,,,,,,,,,,,,,,,,,,,ZX8Z3G,train_x,red_square,bottom_right,2025-06-14_16h13.25.745,HideSeek_v1,2022.2.5,59.989549819851696,
,7,1,4,1,-3,0,46,,train_dim1_1,1,30,,,,2,0,2,0,,,,,,,,,0,0,0,0,0,0,0,0,0,0,0,0,,,,,,,,,,,,,,,,,,,,,,,,,stimuli/alien_stimuli/46.png,,,,,,,,,,,,,,,,,,,,,,,,,,,,,,,,,,,,,,,30,,,,,,,,1522.8808745999995,1522.8808745999995,1522.8808745999995,1522.8808745999995,1522.8808745999995,up,46.71718020000117,0,0,0,99,0.4,-0.24,up,46.62383880000198,,,,,,,,,,,,,,,,,,,,,,,,,,,,,,,,,,,,,,,,,,,,,,,,,,,,,,,,,,,,ZX8Z3G,train_x,red_square,bottom_right,2025-06-14_16h13.25.745,HideSeek_v1,2022.2.5,59.989549819851696,
,7,1,4,1,-3,0,46,,train_dim1_1,1,30,,,,2,0,2,0,,,,,,,,,0,0,0,0,0,0,0,0,1,0,1,0,,,,,,,,,,,,,,,,,,,,,,,,,,,,,,,,,,,,,,,,,,,,,,,,,,,,,,,,,,,,,,,,30,,,,,,,,1569.5977626999993,1569.5977626999993,1569.5977626999993,1569.5977626999993,1569.5977626999993,up,1.176942300000519,0,0,0,99,0.4,-0.15999999999999998,up,1.0846089999977266,,,,,,,,,,,,,,,,,,,,,,,,,,,,,,,,,,,,,,,,,,,,,,,,,,,,,,,,,,,,ZX8Z3G,train_x,red_square,bottom_right,2025-06-14_16h13.25.745,HideSeek_v1,2022.2.5,59.989549819851696,
,7,1,4,1,-3,0,46,,train_dim1_1,1,30,,,,2,0,2,0,,,,,,,,,0,0,0,0,0,0,0,0,2,0,2,0,,,,,,,,,,,,,,,,,,,,,,,,,,,,,,,,,,,,,,,,,,,,,,,,,,,,,,,,,,,,,,,,30,,,,,,,,1570.769421699999,1570.769421699999,1570.769421699999,1570.769421699999,1570.769421699999,up,1.1107021999996505,0,0,0,99,0.4,-0.07999999999999997,up,1.0254368999994767,,,,,,,,,,,,,,,,,,,,,,,,,,,,,,,,,,,,,,,,,,,,,,,,,,,,,,,,,,,,ZX8Z3G,train_x,red_square,bottom_right,2025-06-14_16h13.25.745,HideSeek_v1,2022.2.5,59.989549819851696,
,7,1,4,1,-3,0,46,,train_dim1_1,1,30,,,,2,0,2,0,,,,,,,,,0,0,0,0,0,0,0,0,3,0,3,0,,,,,,,,,,,,,,,,,,,,,,,,,,,,,,,,,,,,,,,,,,,,,,,,,,,,,,,,,,,,,,,,30,,,,,,,,1571.8867764999995,1571.8867764999995,1571.8867764999995,1571.8867764999995,1571.8867764999995,up,3.011804100002337,0,0,0,99,0.4,2.7755575615628914e-17,up,2.938344700000016,,,,,,,,,,,,,,,,,,,,,,,,,,,,,,,,,,,,,,,,,,,,,,,,,,,,,,,,,,,,ZX8Z3G,train_x,red_square,bottom_right,2025-06-14_16h13.25.745,HideSeek_v1,2022.2.5,59.989549819851696,
,7,1,4,1,-3,0,46,,train_dim1_1,1,30,,,,2,0,2,0,,,,,,,,,0,0,0,0,0,0,0,0,4,0,4,0,,,,,,,,,,,,,,,,,,,,,,,,,,,,,,,,,,,,,,,,,,,,,,,,,,,,,,,,,,,,,,,,30,,,,,,,,1574.9054935999993,1574.9054935999993,1574.9054935999993,1574.9054935999993,1574.9054935999993,return,1.027545300003112,0,0,0,0,0.4,2.7755575615628914e-17,return,0.9501034999993863,4,0,0.4,2.7755575615628914e-17,,,,,,,,,,,,,,,,,,,,,,,,,,,,,,,,,,,,,,,,,,,,,,,,,,,,,,,,ZX8Z3G,train_x,red_square,bottom_right,2025-06-14_16h13.25.745,HideSeek_v1,2022.2.5,59.989549819851696,
,7,4,7,4,0,0,16,,train_dim1_1,2,30,,,,2,0,2,0,,,,,,,,,0,0,0,0,0,1,1,1,0,0,0,0,,,,,,,,,,,,,,,,,,,,,,,,,stimuli/alien_stimuli/16.png,,,,,,,,,,,,,,,,,,,,,,,,,,,,,stimuli/alien_stimuli/46.png,46,7,3,,,,,,,30,,,,,,,,1601.8773981999984,1601.8773981999984,1601.8773981999984,1601.8773981999984,1601.8773981999984,down,8.663422900001024,0,0,0,99,0.4,-0.16,down,8.556503199997678,,,,,1600.2975101999982,1601.8773981999984,0.16,-0.32,0.0,0.24,-0.32,0.16,0.28,0.16,-0.32,1577.503248699999,1577.503248699999,1577.503248699999,1577.503248699999,1577.503248699999,1577.503248699999,1577.503248699999,1577.503248699999,1577.4947273699986,22.90552310000203,return,22.778452300000936,,,,,,,,,,,,,,,,,,,,,,,,,,,,,,,,,ZX8Z3G,train_x,red_square,bottom_right,2025-06-14_16h13.25.745,HideSeek_v1,2022.2.5,59.989549819851696,
,7,4,7,4,0,0,16,,train_dim1_1,2,30,,,,2,0,2,0,,,,,,,,,0,0,0,0,0,1,1,1,1,0,1,0,,,,,,,,,,,,,,,,,,,,,,,,,,,,,,,,,,,,,,,,,,,,,,,,,,,,,,,,,,,,,,,,30,,,,,,,,1610.5251734999983,1610.5251734999983,1610.5251734999983,1610.5251734999983,1610.5251734999983,down,1.0262790999986464,0,0,0,99,0.4,-0.24,down,0.9404527000006055,,,,,,,,,,,,,,,,,,,,,,,,,,,,,,,,,,,,,,,,,,,,,,,,,,,,,,,,,,,,ZX8Z3G,train_x,red_square,bottom_right,2025-06-14_16h13.25.745,HideSeek_v1,2022.2.5,59.989549819851696,
,7,4,7,4,0,0,16,,train_dim1_1,2,30,,,,2,0,2,0,,,,,,,,,0,0,0,0,0,1,1,1,2,0,2,0,,,,,,,,,,,,,,,,,,,,,,,,,,,,,,,,,,,,,,,,,,,,,,,,,,,,,,,,,,,,,,,,30,,,,,,,,1611.5576376999998,1611.5576376999998,1611.5576376999998,1611.5576376999998,1611.5576376999998,down,2.745056599997042,0,0,0,99,0.4,-0.32,down,2.663526100001036,,,,,,,,,,,,,,,,,,,,,,,,,,,,,,,,,,,,,,,,,,,,,,,,,,,,,,,,,,,,ZX8Z3G,train_x,red_square,bottom_right,2025-06-14_16h13.25.745,HideSeek_v1,2022.2.5,59.989549819851696,
,7,4,7,4,0,0,16,,train_dim1_1,2,30,,,,2,0,2,0,,,,,,,,,0,0,0,0,0,1,1,1,3,0,3,0,,,,,,,,,,,,,,,,,,,,,,,,,,,,,,,,,,,,,,,,,,,,,,,,,,,,,,,,,,,,,,,,30,,,,,,,,1614.3130286999985,1614.3130286999985,1614.3130286999985,1614.3130286999985,1614.3130286999985,down,0.6597699999983888,0,0,0,99,0.4,-0.4,down,0.5753862000019581,,,,,,,,,,,,,,,,,,,,,,,,,,,,,,,,,,,,,,,,,,,,,,,,,,,,,,,,,,,,ZX8Z3G,train_x,red_square,bottom_right,2025-06-14_16h13.25.745,HideSeek_v1,2022.2.5,59.989549819851696,
,7,4,7,4,0,0,16,,train_dim1_1,2,30,,,,2,0,2,0,,,,,,,,,0,0,0,0,0,1,1,1,4,0,4,0,,,,,,,,,,,,,,,,,,,,,,,,,,,,,,,,,,,,,,,,,,,,,,,,,,,,,,,,,,,,,,,,30,,,,,,,,1614.9782911000002,1614.9782911000002,1614.9782911000002,1614.9782911000002,1614.9782911000002,return,0.8104868000009446,0,0,0,0,0.4,-0.4,return,0.7230314999978873,0,0,0.4,-0.4,,,,,,,,,,,,,,,,,,,,,,,,,,,,,,,,,,,,,,,,,,,,,,,,,,,,,,,,ZX8Z3G,train_x,red_square,bottom_right,2025-06-14_16h13.25.745,HideSeek_v1,2022.2.5,59.989549819851696,
,9,4,8,4,-1,0,26,,train_dim1_1,3,30,,,,2,0,2,0,,,,,,,,,0,0,0,0,0,2,2,2,0,0,0,0,,,,,,,,,,,,,,,,,,,,,,,,,stimuli/alien_stimuli/26.png,,,,,,,,,,,,,,,,,,,,,,,,,,,,,stimuli/alien_stimuli/16.png,16,7,4,,,,,,,30,,,,,,,,1637.2308391000006,1637.2308391000006,1637.2308391000006,1637.2308391000006,1637.2308391000006,left,6.644978899999842,0,0,0,99,0.48000000000000004,-0.08,left,6.540154499998607,,,,,1635.6599285000011,1637.2308391000006,0.4,-0.08,0.0,0.0,-0.08,0.4,0.4,0.4,-0.08,1617.3696850999986,1617.3696850999986,1617.3696850999986,1617.3696850999986,1617.3696850999986,1617.3696850999986,1617.3696850999986,1617.3696850999986,1617.3614683799985,18.417126299998927,return,18.26498029999857,,,,,,,,,,,,,,,,,,,,,,,,,,,,,,,,,ZX8Z3G,train_x,red_square,bottom_right,2025-06-14_16h13.25.745,HideSeek_v1,2022.2.5,59.989549819851696,
,9,4,8,4,-1,0,26,,train_dim1_1,3,30,,,,2,0,2,0,,,,,,,,,0,0,0,0,0,2,2,2,1,0,1,0,,,,,,,,,,,,,,,,,,,,,,,,,,,,,,,,,,,,,,,,,,,,,,,,,,,,,,,,,,,,,,,,30,,,,,,,,1643.8800792000002,1643.8800792000002,1643.8800792000002,1643.8800792000002,1643.8800792000002,left,2.0105328999998164,0,0,0,99,0.4,-0.08,left,1.9205321000008553,,,,,,,,,,,,,,,,,,,,,,,,,,,,,,,,,,,,,,,,,,,,,,,,,,,,,,,,,,,,ZX8Z3G,train_x,red_square,bottom_right,2025-06-14_16h13.25.745,HideSeek_v1,2022.2.5,59.989549819851696,
,9,4,8,4,-1,0,26,,train_dim1_1,3,30,,,,2,0,2,0,,,,,,,,,0,0,0,0,0,2,2,2,2,0,2,0,,,,,,,,,,,,,,,,,,,,,,,,,,,,,,,,,,,,,,,,,,,,,,,,,,,,,,,,,,,,,,,,30,,,,,,,,1645.8853961999994,1645.8853961999994,1645.8853961999994,1645.8853961999994,1645.8853961999994,return,1.2769388999986404,0,1,0,0,0.4,-0.08,return,1.1956370000007155,0,-2,0.4,-0.08,,,,,,,,,,,,,,,,,,,,,,,,,,,,,,,,,,,,,,,,,,,,,,,,,,,,,,,,ZX8Z3G,train_x,red_square,bottom_right,2025-06-14_16h13.25.745,HideSeek_v1,2022.2.5,59.989549819851696,
,7,3,3,3,-4,0,56,,train_dim1_1,4,30,,,,2,0,2,0,,,,,,,,,0,0,0,0,0,3,3,3,0,0,0,0,,,,,,,,,,,,,,,,,,,,,,,,,stimuli/alien_stimuli/56.png,,,,,,,,,,,,,,,,,,,,,,,,,,,,,stimuli/alien_stimuli/26.png,26,9,5,,,,,,,30,,,,,,,,1676.1053386999993,1676.1053386999993,1676.1053386999993,1676.1053386999993,1676.1053386999993,left,4.292510699997365,0,1,0,99,0.32,-0.16,left,4.196158499999001,,,,,1674.5421023999988,1676.1053386999993,0.48,-0.08,0.0,0.08,-0.08,0.48,0.52,0.48,-0.08,1648.7487183000012,1648.7487183000012,1648.7487183000012,1648.7487183000012,1648.7487183000012,1648.7487183000012,1648.7487183000012,1648.7487183000012,1648.7372607800005,25.924003500000254,return,25.77302419999978,,,,,,,,,,,,,,,,,,,,,,,,,,,,,,,,,ZX8Z3G,train_x,red_square,bottom_right,2025-06-14_16h13.25.745,HideSeek_v1,2022.2.5,59.989549819851696,
,7,3,3,3,-4,0,56,,train_dim1_1,4,30,,,,2,0,2,0,,,,,,,,,0,0,0,0,0,3,3,3,1,0,1,0,,,,,,,,,,,,,,,,,,,,,,,,,,,,,,,,,,,,,,,,,,,,,,,,,,,,,,,,,,,,,,,,30,,,,,,,,1680.3969862999984,1680.3969862999984,1680.3969862999984,1680.3969862999984,1680.3969862999984,left,0.9265272999982699,0,1,0,99,0.24,-0.16,left,0.8462607000001299,,,,,,,,,,,,,,,,,,,,,,,,,,,,,,,,,,,,,,,,,,,,,,,,,,,,,,,,,,,,ZX8Z3G,train_x,red_square,bottom_right,2025-06-14_16h13.25.745,HideSeek_v1,2022.2.5,59.989549819851696,
,7,3,3,3,-4,0,56,,train_dim1_1,4,30,,,,2,0,2,0,,,,,,,,,0,0,0,0,0,3,3,3,2,0,2,0,,,,,,,,,,,,,,,,,,,,,,,,,,,,,,,,,,,,,,,,,,,,,,,,,,,,,,,,,,,,,,,,30,,,,,,,,1681.329974799999,1681.329974799999,1681.329974799999,1681.329974799999,1681.329974799999,left,0.8938878000008117,0,1,0,99,0.15999999999999998,-0.16,left,0.8144515999993018,,,,,,,,,,,,,,,,,,,,,,,,,,,,,,,,,,,,,,,,,,,,,,,,,,,,,,,,,,,,ZX8Z3G,train_x,red_square,bottom_right,2025-06-14_16h13.25.745,HideSeek_v1,2022.2.5,59.989549819851696,
,7,3,3,3,-4,0,56,,train_dim1_1,4,30,,,,2,0,2,0,,,,,,,,,0,0,0,0,0,3,3,3,3,0,3,0,,,,,,,,,,,,,,,,,,,,,,,,,,,,,,,,,,,,,,,,,,,,,,,,,,,,,,,,,,,,,,,,30,,,,,,,,1682.230857399998,1682.230857399998,1682.230857399998,1682.230857399998,1682.230857399998,left,0.9098842999992485,0,1,0,99,0.07999999999999997,-0.16,left,0.8309343000000808,,,,,,,,,,,,,,,,,,,,,,,,,,,,,,,,,,,,,,,,,,,,,,,,,,,,,,,,,,,,ZX8Z3G,train_x,red_square,bottom_right,2025-06-14_16h13.25.745,HideSeek_v1,2022.2.5,59.989549819851696,
,7,3,3,3,-4,0,56,,train_dim1_1,4,30,,,,2,0,2,0,,,,,,,,,0,0,0,0,0,3,3,3,4,0,4,0,,,,,,,,,,,,,,,,,,,,,,,,,,,,,,,,,,,,,,,,,,,,,,,,,,,,,,,,,,,,,,,,30,,,,,,,,1683.1479887999994,1683.1479887999994,1683.1479887999994,1683.1479887999994,1683.1479887999994,return,1.7611983999995573,1,0,0,1,0.07999999999999997,-0.16,return,1.6815816999987874,0,-6,0.07999999999999997,-0.16,,,,,,,,,,,,,,,,,,,,,,,,,,,,,,,,,,,,,,,,,,,,,,,,,,,,,,,,ZX8Z3G,train_x,red_square,bottom_right,2025-06-14_16h13.25.745,HideSeek_v1,2022.2.5,59.989549819851696,
,5,2,0,2,-5,0,66,,train_dim1_1,5,30,,,,2,0,2,0,,,,,,,,,0,0,0,0,0,4,4,4,0,0,0,0,,,,,,,,,,,,,,,,,,,,,,,,,stimuli/alien_stimuli/66.png,,,,,,,,,,,,,,,,,,,,,,,,,,,,,stimuli/alien_stimuli/56.png,56,7,6,,,,,,,30,,,,,,,,1693.2307297999978,1693.2307297999978,1693.2307297999978,1693.2307297999978,1693.2307297999978,left,4.192594199997984,1,0,0,99,0.15999999999999998,-0.24,left,4.106515799998306,,,,,1691.6730472999989,1693.2307297999978,0.08,-0.16,0.0,0.32,-0.16,0.08,0.24000000000000002,0.08,-0.16,1686.493337699998,1686.493337699998,1686.493337699998,1686.493337699998,1686.493337699998,1686.493337699998,1686.493337699998,1686.493337699998,1686.4854599799999,5.306080900001689,return,5.154390599996987,,,,,,,,,,,,,,,,,,,,,,,,,,,,,,,,,ZX8Z3G,train_x,red_square,bottom_right,2025-06-14_16h13.25.745,HideSeek_v1,2022.2.5,59.989549819851696,
,5,2,0,2,-5,0,66,,train_dim1_1,5,30,,,,2,0,2,0,,,,,,,,,0,0,0,0,0,4,4,4,1,0,1,0,,,,,,,,,,,,,,,,,,,,,,,,,,,,,,,,,,,,,,,,,,,,,,,,,,,,,,,,,,,,,,,,30,,,,,,,,1697.4253409999983,1697.4253409999983,1697.4253409999983,1697.4253409999983,1697.4253409999983,left,0.593082700001105,1,0,0,99,0.07999999999999997,-0.24,left,0.5116679000020667,,,,,,,,,,,,,,,,,,,,,,,,,,,,,,,,,,,,,,,,,,,,,,,,,,,,,,,,,,,,ZX8Z3G,train_x,red_square,bottom_right,2025-06-14_16h13.25.745,HideSeek_v1,2022.2.5,59.989549819851696,
,5,2,0,2,-5,0,66,,train_dim1_1,5,30,,,,2,0,2,0,,,,,,,,,0,0,0,0,0,4,4,4,2,0,2,0,,,,,,,,,,,,,,,,,,,,,,,,,,,,,,,,,,,,,,,,,,,,,,,,,,,,,,,,,,,,,,,,30,,,,,,,,1698.0246240999986,1698.0246240999986,1698.0246240999986,1698.0246240999986,1698.0246240999986,left,0.660509400000592,1,0,0,99,-2.7755575615628914e-17,-0.24,left,0.5862058999991859,,,,,,,,,,,,,,,,,,,,,,,,,,,,,,,,,,,,,,,,,,,,,,,,,,,,,,,,,,,,ZX8Z3G,train_x,red_square,bottom_right,2025-06-14_16h13.25.745,HideSeek_v1,2022.2.5,59.989549819851696,
,5,2,0,2,-5,0,66,,train_dim1_1,5,30,,,,2,0,2,0,,,,,,,,,0,0,0,0,0,4,4,4,3,0,3,0,,,,,,,,,,,,,,,,,,,,,,,,,,,,,,,,,,,,,,,,,,,,,,,,,,,,,,,,,,,,,,,,30,,,,,,,,1698.6928539,1698.6928539,1698.6928539,1698.6928539,1698.6928539,left,0.759738999997353,1,0,0,99,-0.08000000000000003,-0.24,left,0.6766098000007332,,,,,,,,,,,,,,,,,,,,,,,,,,,,,,,,,,,,,,,,,,,,,,,,,,,,,,,,,,,,ZX8Z3G,train_x,red_square,bottom_right,2025-06-14_16h13.25.745,HideSeek_v1,2022.2.5,59.989549819851696,
,5,2,0,2,-5,0,66,,train_dim1_1,5,30,,,,2,0,2,0,,,,,,,,,0,0,0,0,0,4,4,4,4,0,4,0,,,,,,,,,,,,,,,,,,,,,,,,,,,,,,,,,,,,,,,,,,,,,,,,,,,,,,,,,,,,,,,,30,,,,,,,,1699.4600753999985,1699.4600753999985,1699.4600753999985,1699.4600753999985,1699.4600753999985,left,0.5931643999974767,1,0,0,99,-0.16000000000000003,-0.24,left,0.508660499999678,,,,,,,,,,,,,,,,,,,,,,,,,,,,,,,,,,,,,,,,,,,,,,,,,,,,,,,,,,,,ZX8Z3G,train_x,red_square,bottom_right,2025-06-14_16h13.25.745,HideSeek_v1,2022.2.5,59.989549819851696,
,5,2,0,2,-5,0,66,,train_dim1_1,5,30,,,,2,0,2,0,,,,,,,,,0,0,0,0,0,4,4,4,5,0,5,0,,,,,,,,,,,,,,,,,,,,,,,,,,,,,,,,,,,,,,,,,,,,,,,,,,,,,,,,,,,,,,,,30,,,,,,,,1700.0606434000001,1700.0606434000001,1700.0606434000001,1700.0606434000001,1700.0606434000001,return,0.7771515000022191,2,0,0,1,-0.16000000000000003,-0.24,return,0.7028424999989511,0,-11,-0.16000000000000003,-0.24,,,,,,,,,,,,,,,,,,,,,,,,,,,,,,,,,,,,,,,,,,,,,,,,,,,,,,,,ZX8Z3G,train_x,red_square,bottom_right,2025-06-14_16h13.25.745,HideSeek_v1,2022.2.5,59.989549819851696,
,5,0,4,0,-1,0,26,,train_dim1_1,6,30,,,,2,0,2,0,,,,,,,,,0,0,0,0,0,5,5,5,0,0,0,0,,,,,,,,,,,,,,,,,,,,,,,,,stimuli/alien_stimuli/26.png,,,,,,,,,,,,,,,,,,,,,,,,,,,,,stimuli/alien_stimuli/66.png,66,5,7,,,,,,,30,,,,,,,,1708.3828433999988,1708.3828433999988,1708.3828433999988,1708.3828433999988,1708.3828433999988,left,5.343550099998538,2,0,0,99,0.15999999999999998,-0.4,left,5.242967599999247,,,,,1706.8188188999993,1708.3828433999988,-0.16,-0.24,0.0,0.4,-0.24,-0.16,0.039999999999999994,-0.16,-0.24,1702.4124909999991,1702.4124909999991,1702.4124909999991,1702.4124909999991,1702.4124909999991,1702.4124909999991,1702.4124909999991,1702.4124909999991,1702.3983914700007,4.522789999999077,return,4.385031699996034,,,,,,,,,,,,,,,,,,,,,,,,,,,,,,,,,ZX8Z3G,train_x,red_square,bottom_right,2025-06-14_16h13.25.745,HideSeek_v1,2022.2.5,59.989549819851696,
,5,0,4,0,-1,0,26,,train_dim1_1,6,30,,,,2,0,2,0,,,,,,,,,0,0,0,0,0,5,5,5,1,0,1,0,,,,,,,,,,,,,,,,,,,,,,,,,,,,,,,,,,,,,,,,,,,,,,,,,,,,,,,,,,,,,,,,30,,,,,,,,1713.7259778999978,1713.7259778999978,1713.7259778999978,1713.7259778999978,1713.7259778999978,left,0.6597849999998289,2,0,0,99,0.07999999999999997,-0.4,left,0.5778341999975964,,,,,,,,,,,,,,,,,,,,,,,,,,,,,,,,,,,,,,,,,,,,,,,,,,,,,,,,,,,,ZX8Z3G,train_x,red_square,bottom_right,2025-06-14_16h13.25.745,HideSeek_v1,2022.2.5,59.989549819851696,
,5,0,4,0,-1,0,26,,train_dim1_1,6,30,,,,2,0,2,0,,,,,,,,,0,0,0,0,0,5,5,5,2,0,2,0,,,,,,,,,,,,,,,,,,,,,,,,,,,,,,,,,,,,,,,,,,,,,,,,,,,,,,,,,,,,,,,,30,,,,,,,,1714.392233300001,1714.392233300001,1714.392233300001,1714.392233300001,1714.392233300001,left,0.510087000002386,2,0,0,99,-2.7755575615628914e-17,-0.4,left,0.4178727999969851,,,,,,,,,,,,,,,,,,,,,,,,,,,,,,,,,,,,,,,,,,,,,,,,,,,,,,,,,,,,ZX8Z3G,train_x,red_square,bottom_right,2025-06-14_16h13.25.745,HideSeek_v1,2022.2.5,59.989549819851696,
,5,0,4,0,-1,0,26,,train_dim1_1,6,30,,,,2,0,2,0,,,,,,,,,0,0,0,0,0,5,5,5,3,0,3,0,,,,,,,,,,,,,,,,,,,,,,,,,,,,,,,,,,,,,,,,,,,,,,,,,,,,,,,,,,,,,,,,30,,,,,,,,1714.909197500001,1714.909197500001,1714.909197500001,1714.909197500001,1714.909197500001,return,0.6939163999995799,2,0,0,0,-2.7755575615628914e-17,-0.4,return,0.6162925999997242,0,-14,-2.7755575615628914e-17,-0.4,,,,,,,,,,,,,,,,,,,,,,,,,,,,,,,,,,,,,,,,,,,,,,,,,,,,,,,,ZX8Z3G,train_x,red_square,bottom_right,2025-06-14_16h13.25.745,HideSeek_v1,2022.2.5,59.989549819851696,
,8,0,3,0,-5,0,66,,train_dim1_1,7,30,,,,2,0,2,0,,,,,,,,,0,0,0,0,0,6,6,6,0,0,0,0,,,,,,,,,,,,,,,,,,,,,,,,,stimuli/alien_stimuli/66.png,,,,,,,,,,,,,,,,,,,,,,,,,,,,,stimuli/alien_stimuli/26.png,26,5,8,,,,,,,30,,,,,,,,1721.6882196000006,1721.6882196000006,1721.6882196000006,1721.6882196000006,1721.6882196000006,left,2.1909205999982078,2,0,0,99,0.39999999999999997,-0.4,left,2.112184599998727,,,,,1720.1299943000013,1721.6882196000006,0.16,-0.4,0.0,0.08,-0.4,0.16,0.2,0.16,-0.4,1717.1881228999991,1717.1881228999991,1717.1881228999991,1717.1881228999991,1717.1881228999991,1717.1881228999991,1717.1881228999991,1717.1881228999991,1717.1773890800011,3.071478100002423,return,2.9134697999979835,,,,,,,,,,,,,,,,,,,,,,,,,,,,,,,,,ZX8Z3G,train_x,red_square,bottom_right,2025-06-14_16h13.25.745,HideSeek_v1,2022.2.5,59.989549819851696,
,8,0,3,0,-5,0,66,,train_dim1_1,7,30,,,,2,0,2,0,,,,,,,,,0,0,0,0,0,6,6,6,1,0,1,0,,,,,,,,,,,,,,,,,,,,,,,,,,,,,,,,,,,,,,,,,,,,,,,,,,,,,,,,,,,,,,,,30,,,,,,,,1723.8797713999993,1723.8797713999993,1723.8797713999993,1723.8797713999993,1723.8797713999993,left,0.7930577000006451,2,0,0,99,0.31999999999999995,-0.4,left,0.7164163000015833,,,,,,,,,,,,,,,,,,,,,,,,,,,,,,,,,,,,,,,,,,,,,,,,,,,,,,,,,,,,ZX8Z3G,train_x,red_square,bottom_right,2025-06-14_16h13.25.745,HideSeek_v1,2022.2.5,59.989549819851696,
,8,0,3,0,-5,0,66,,train_dim1_1,7,30,,,,2,0,2,0,,,,,,,,,0,0,0,0,0,6,6,6,2,0,2,0,,,,,,,,,,,,,,,,,,,,,,,,,,,,,,,,,,,,,,,,,,,,,,,,,,,,,,,,,,,,,,,,30,,,,,,,,1724.6800360999987,1724.6800360999987,1724.6800360999987,1724.6800360999987,1724.6800360999987,left,0.7603822999990371,2,0,0,99,0.23999999999999994,-0.4,left,0.6873508999960904,,,,,,,,,,,,,,,,,,,,,,,,,,,,,,,,,,,,,,,,,,,,,,,,,,,,,,,,,,,,ZX8Z3G,train_x,red_square,bottom_right,2025-06-14_16h13.25.745,HideSeek_v1,2022.2.5,59.989549819851696,
,8,0,3,0,-5,0,66,,train_dim1_1,7,30,,,,2,0,2,0,,,,,,,,,0,0,0,0,0,6,6,6,3,0,3,0,,,,,,,,,,,,,,,,,,,,,,,,,,,,,,,,,,,,,,,,,,,,,,,,,,,,,,,,,,,,,,,,30,,,,,,,,1725.4481229000012,1725.4481229000012,1725.4481229000012,1725.4481229000012,1725.4481229000012,left,0.7604380000011588,2,0,0,99,0.15999999999999992,-0.4,left,0.6791214000004402,,,,,,,,,,,,,,,,,,,,,,,,,,,,,,,,,,,,,,,,,,,,,,,,,,,,,,,,,,,,ZX8Z3G,train_x,red_square,bottom_right,2025-06-14_16h13.25.745,HideSeek_v1,2022.2.5,59.989549819851696,
,8,0,3,0,-5,0,66,,train_dim1_1,7,30,,,,2,0,2,0,,,,,,,,,0,0,0,0,0,6,6,6,4,0,4,0,,,,,,,,,,,,,,,,,,,,,,,,,,,,,,,,,,,,,,,,,,,,,,,,,,,,,,,,,,,,,,,,30,,,,,,,,1726.2145477000013,1726.2145477000013,1726.2145477000013,1726.2145477000013,1726.2145477000013,left,0.6767585999987205,2,0,0,99,0.07999999999999992,-0.4,left,0.5896315999998478,,,,,,,,,,,,,,,,,,,,,,,,,,,,,,,,,,,,,,,,,,,,,,,,,,,,,,,,,,,,ZX8Z3G,train_x,red_square,bottom_right,2025-06-14_16h13.25.745,HideSeek_v1,2022.2.5,59.989549819851696,
,8,0,3,0,-5,0,66,,train_dim1_1,7,30,,,,2,0,2,0,,,,,,,,,0,0,0,0,0,6,6,6,5,0,5,0,,,,,,,,,,,,,,,,,,,,,,,,,,,,,,,,,,,,,,,,,,,,,,,,,,,,,,,,,,,,,,,,30,,,,,,,,1726.8987478999989,1726.8987478999989,1726.8987478999989,1726.8987478999989,1726.8987478999989,return,0.7940135999997437,3,0,0,1,0.07999999999999992,-0.4,return,0.7151789999988978,0,-19,0.07999999999999992,-0.4,,,,,,,,,,,,,,,,,,,,,,,,,,,,,,,,,,,,,,,,,,,,,,,,,,,,,,,,ZX8Z3G,train_x,red_square,bottom_right,2025-06-14_16h13.25.745,HideSeek_v1,2022.2.5,59.989549819851696,
,5,4,2,4,-3,0,46,,train_dim1_1,8,30,,,,2,0,2,0,,,,,,,,,0,0,0,0,0,7,7,7,0,0,0,0,,,,,,,,,,,,,,,,,,,,,,,,,stimuli/alien_stimuli/46.png,,,,,,,,,,,,,,,,,,,,,,,,,,,,,stimuli/alien_stimuli/66.png,66,8,9,,,,,,,30,,,,,,,,1734.5842346999998,1734.5842346999998,1734.5842346999998,1734.5842346999998,1734.5842346999998,right,2.839354900002945,3,0,0,99,0.32,-0.08,right,2.7503203000014764,,,,,1733.0241270000006,1734.5842346999998,0.08,-0.4,0.0,0.4,-0.4,0.08,0.27999999999999997,0.08,-0.4,1729.269152599998,1729.269152599998,1729.269152599998,1729.269152599998,1729.269152599998,1729.269152599998,1729.269152599998,1729.269152599998,1729.2540938700008,3.872319400001288,return,3.7383374999990338,,,,,,,,,,,,,,,,,,,,,,,,,,,,,,,,,ZX8Z3G,train_x,red_square,bottom_right,2025-06-14_16h13.25.745,HideSeek_v1,2022.2.5,59.989549819851696,
,5,4,2,4,-3,0,46,,train_dim1_1,8,30,,,,2,0,2,0,,,,,,,,,0,0,0,0,0,7,7,7,1,0,1,0,,,,,,,,,,,,,,,,,,,,,,,,,,,,,,,,,,,,,,,,,,,,,,,,,,,,,,,,,,,,,,,,30,,,,,,,,1737.4243988999988,1737.4243988999988,1737.4243988999988,1737.4243988999988,1737.4243988999988,right,0.6432590000003984,3,0,0,99,0.4,-0.08,right,0.5586593000007269,,,,,,,,,,,,,,,,,,,,,,,,,,,,,,,,,,,,,,,,,,,,,,,,,,,,,,,,,,,,ZX8Z3G,train_x,red_square,bottom_right,2025-06-14_16h13.25.745,HideSeek_v1,2022.2.5,59.989549819851696,
,5,4,2,4,-3,0,46,,train_dim1_1,8,30,,,,2,0,2,0,,,,,,,,,0,0,0,0,0,7,7,7,2,0,2,0,,,,,,,,,,,,,,,,,,,,,,,,,,,,,,,,,,,,,,,,,,,,,,,,,,,,,,,,,,,,,,,,30,,,,,,,,1738.0743872999992,1738.0743872999992,1738.0743872999992,1738.0743872999992,1738.0743872999992,right,0.5939925999991829,3,0,0,99,0.48000000000000004,-0.08,right,0.511524500001542,,,,,,,,,,,,,,,,,,,,,,,,,,,,,,,,,,,,,,,,,,,,,,,,,,,,,,,,,,,,ZX8Z3G,train_x,red_square,bottom_right,2025-06-14_16h13.25.745,HideSeek_v1,2022.2.5,59.989549819851696,
,5,4,2,4,-3,0,46,,train_dim1_1,8,30,,,,2,0,2,0,,,,,,,,,0,0,0,0,0,7,7,7,3,0,3,0,,,,,,,,,,,,,,,,,,,,,,,,,,,,,,,,,,,,,,,,,,,,,,,,,,,,,,,,,,,,,,,,30,,,,,,,,1738.6751165999995,1738.6751165999995,1738.6751165999995,1738.6751165999995,1738.6751165999995,left,4.31333050000103,3,0,0,99,0.4,-0.08,left,4.231837100000121,,,,,,,,,,,,,,,,,,,,,,,,,,,,,,,,,,,,,,,,,,,,,,,,,,,,,,,,,,,,ZX8Z3G,train_x,red_square,bottom_right,2025-06-14_16h13.25.745,HideSeek_v1,2022.2.5,59.989549819851696,
,5,4,2,4,-3,0,46,,train_dim1_1,8,30,,,,2,0,2,0,,,,,,,,,0,0,0,0,0,7,7,7,4,0,4,0,,,,,,,,,,,,,,,,,,,,,,,,,,,,,,,,,,,,,,,,,,,,,,,,,,,,,,,,,,,,,,,,30,,,,,,,,1742.9956526999995,1742.9956526999995,1742.9956526999995,1742.9956526999995,1742.9956526999995,left,0.7269205000011425,3,0,0,99,0.32,-0.08,left,0.6383686000008311,,,,,,,,,,,,,,,,,,,,,,,,,,,,,,,,,,,,,,,,,,,,,,,,,,,,,,,,,,,,ZX8Z3G,train_x,red_square,bottom_right,2025-06-14_16h13.25.745,HideSeek_v1,2022.2.5,59.989549819851696,
,5,4,2,4,-3,0,46,,train_dim1_1,8,30,,,,2,0,2,0,,,,,,,,,0,0,0,0,0,7,7,7,5,0,5,0,,,,,,,,,,,,,,,,,,,,,,,,,,,,,,,,,,,,,,,,,,,,,,,,,,,,,,,,,,,,,,,,30,,,,,,,,1743.729910099999,1743.729910099999,1743.729910099999,1743.729910099999,1743.729910099999,left,0.5934305999981007,3,0,0,99,0.24,-0.08,left,0.5118064999987837,,,,,,,,,,,,,,,,,,,,,,,,,,,,,,,,,,,,,,,,,,,,,,,,,,,,,,,,,,,,ZX8Z3G,train_x,red_square,bottom_right,2025-06-14_16h13.25.745,HideSeek_v1,2022.2.5,59.989549819851696,
,5,4,2,4,-3,0,46,,train_dim1_1,8,30,,,,2,0,2,0,,,,,,,,,0,0,0,0,0,7,7,7,6,0,6,0,,,,,,,,,,,,,,,,,,,,,,,,,,,,,,,,,,,,,,,,,,,,,,,,,,,,,,,,,,,,,,,,30,,,,,,,,1744.330352099998,1744.330352099998,1744.330352099998,1744.330352099998,1744.330352099998,return,0.5439098999995622,3,0,0,0,0.24,-0.08,return,0.47016249999796855,0,-19,0.24,-0.08,,,,,,,,,,,,,,,,,,,,,,,,,,,,,,,,,,,,,,,,,,,,,,,,,,,,,,,,ZX8Z3G,train_x,red_square,bottom_right,2025-06-14_16h13.25.745,HideSeek_v1,2022.2.5,59.989549819851696,
,6,0,2,0,-4,0,56,,train_dim1_1,9,30,,,,2,0,2,0,,,,,,,,,0,0,0,0,0,8,8,8,0,0,0,0,,,,,,,,,,,,,,,,,,,,,,,,,stimuli/alien_stimuli/56.png,,,,,,,,,,,,,,,,,,,,,,,,,,,,,stimuli/alien_stimuli/46.png,46,5,10,,,,,,,30,,,,,,,,1750.2237456000003,1750.2237456000003,1750.2237456000003,1750.2237456000003,1750.2237456000003,left,2.230401399996481,3,0,0,99,0.24,-0.4,left,2.1196976999999606,,,,,1748.6367912999995,1750.2237456000003,0,-0.08,0.0,0.24,-0.08,0,0.12,0,-0.08,1746.4516562999997,1746.4516562999997,1746.4516562999997,1746.4516562999997,1746.4516562999997,1746.4516562999997,1746.4516562999997,1746.4516562999997,1746.4352200699982,2.3039831000023696,return,2.162717600000178,,,,,,,,,,,,,,,,,,,,,,,,,,,,,,,,,ZX8Z3G,train_x,red_square,bottom_right,2025-06-14_16h13.25.745,HideSeek_v1,2022.2.5,59.989549819851696,
,6,0,2,0,-4,0,56,,train_dim1_1,9,30,,,,2,0,2,0,,,,,,,,,0,0,0,0,0,8,8,8,1,0,1,0,,,,,,,,,,,,,,,,,,,,,,,,,,,,,,,,,,,,,,,,,,,,,,,,,,,,,,,,,,,,,,,,30,,,,,,,,1752.4393668000012,1752.4393668000012,1752.4393668000012,1752.4393668000012,1752.4393668000012,left,0.5597412999995868,3,0,0,99,0.15999999999999998,-0.4,left,0.4695977000010316,,,,,,,,,,,,,,,,,,,,,,,,,,,,,,,,,,,,,,,,,,,,,,,,,,,,,,,,,,,,ZX8Z3G,train_x,red_square,bottom_right,2025-06-14_16h13.25.745,HideSeek_v1,2022.2.5,59.989549819851696,
,6,0,2,0,-4,0,56,,train_dim1_1,9,30,,,,2,0,2,0,,,,,,,,,0,0,0,0,0,8,8,8,2,0,2,0,,,,,,,,,,,,,,,,,,,,,,,,,,,,,,,,,,,,,,,,,,,,,,,,,,,,,,,,,,,,,,,,30,,,,,,,,1753.005743499998,1753.005743499998,1753.005743499998,1753.005743499998,1753.005743499998,left,0.9269208999976399,3,0,0,99,0.07999999999999997,-0.4,left,0.8530649999993329,,,,,,,,,,,,,,,,,,,,,,,,,,,,,,,,,,,,,,,,,,,,,,,,,,,,,,,,,,,,ZX8Z3G,train_x,red_square,bottom_right,2025-06-14_16h13.25.745,HideSeek_v1,2022.2.5,59.989549819851696,
,6,0,2,0,-4,0,56,,train_dim1_1,9,30,,,,2,0,2,0,,,,,,,,,0,0,0,0,0,8,8,8,3,0,3,0,,,,,,,,,,,,,,,,,,,,,,,,,,,,,,,,,,,,,,,,,,,,,,,,,,,,,,,,,,,,,,,,30,,,,,,,,1753.939775499999,1753.939775499999,1753.939775499999,1753.939775499999,1753.939775499999,return,3.19599830000152,3,1,0,0,0.07999999999999997,-0.4,return,3.1096732999976666,0,-22,0.07999999999999997,-0.4,,,,,,,,,,,,,,,,,,,,,,,,,,,,,,,,,,,,,,,,,,,,,,,,,,,,,,,,ZX8Z3G,train_x,red_square,bottom_right,2025-06-14_16h13.25.745,HideSeek_v1,2022.2.5,59.989549819851696,
,5,3,5,3,0,0,16,,train_dim1_1,10,30,,,,2,0,2,0,,,,,,,,,0,0,0,0,0,9,9,9,0,0,0,0,,,,,,,,,,,,,,,,,,,,,,,,,stimuli/alien_stimuli/16.png,,,,,,,,,,,,,,,,,,,,,,,,,,,,,stimuli/alien_stimuli/56.png,56,6,11,,,,,,,30,,,,,,,,1765.0444552000008,1765.0444552000008,1765.0444552000008,1765.0444552000008,1765.0444552000008,return,2.324550099998305,4,0,0,1,0.24,-0.16,return,2.2274796000019705,0,-22,0.24,-0.16,1763.4823892999993,1765.0444552000008,0,-0.4,0.0,0.32,-0.4,0,0.16,0,-0.4,1758.7161772,1758.7161772,1758.7161772,1758.7161772,1758.7161772,1758.7161772,1758.7161772,1758.7161772,1758.6950817699985,4.889796399998886,return,4.749552499997662,,,,,,,,,,,,,,,,,,,,,,,,,,,,,,,,,ZX8Z3G,train_x,red_square,bottom_right,2025-06-14_16h13.25.745,HideSeek_v1,2022.2.5,59.989549819851696,
,7,2,4,2,-3,0,46,,train_dim1_1,11,30,,,,2,0,2,0,,,,,,,,,0,0,0,0,0,10,10,10,0,0,0,0,,,,,,,,,,,,,,,,,,,,,,,,,stimuli/alien_stimuli/46.png,,,,,,,,,,,,,,,,,,,,,,,,,,,,,stimuli/alien_stimuli/16.png,16,5,12,,,,,,,30,,,,,,,,1771.9964202999981,1771.9964202999981,1771.9964202999981,1771.9964202999981,1771.9964202999981,left,4.9100517999977455,4,0,0,99,0.32,-0.24,left,4.824447599999985,,,,,1770.4382750000004,1771.9964202999981,0.24,-0.16,0.0,0.0,-0.16,0.24,0.24,0.24,-0.16,1768.944156499998,1768.944156499998,1768.944156499998,1768.944156499998,1768.944156499998,1768.944156499998,1768.944156499998,1768.944156499998,1768.936916479999,1.620284399999946,return,1.4626553999987664,,,,,,,,,,,,,,,,,,,,,,,,,,,,,,,,,ZX8Z3G,train_x,red_square,bottom_right,2025-06-14_16h13.25.745,HideSeek_v1,2022.2.5,59.989549819851696,
,7,2,4,2,-3,0,46,,train_dim1_1,11,30,,,,2,0,2,0,,,,,,,,,0,0,0,0,0,10,10,10,1,0,1,0,,,,,,,,,,,,,,,,,,,,,,,,,,,,,,,,,,,,,,,,,,,,,,,,,,,,,,,,,,,,,,,,30,,,,,,,,1776.9093924000008,1776.9093924000008,1776.9093924000008,1776.9093924000008,1776.9093924000008,left,2.1110699999990175,4,0,0,99,0.24,-0.24,left,2.020670300000347,,,,,,,,,,,,,,,,,,,,,,,,,,,,,,,,,,,,,,,,,,,,,,,,,,,,,,,,,,,,ZX8Z3G,train_x,red_square,bottom_right,2025-06-14_16h13.25.745,HideSeek_v1,2022.2.5,59.989549819851696,
,7,2,4,2,-3,0,46,,train_dim1_1,11,30,,,,2,0,2,0,,,,,,,,,0,0,0,0,0,10,10,10,2,0,2,0,,,,,,,,,,,,,,,,,,,,,,,,,,,,,,,,,,,,,,,,,,,,,,,,,,,,,,,,,,,,,,,,30,,,,,,,,1779.0258321000001,1779.0258321000001,1779.0258321000001,1779.0258321000001,1779.0258321000001,left,1.2109218000005058,4,0,0,99,0.15999999999999998,-0.24,left,1.1282185999989451,,,,,,,,,,,,,,,,,,,,,,,,,,,,,,,,,,,,,,,,,,,,,,,,,,,,,,,,,,,,ZX8Z3G,train_x,red_square,bottom_right,2025-06-14_16h13.25.745,HideSeek_v1,2022.2.5,59.989549819851696,
,7,2,4,2,-3,0,46,,train_dim1_1,11,30,,,,2,0,2,0,,,,,,,,,0,0,0,0,0,10,10,10,3,0,3,0,,,,,,,,,,,,,,,,,,,,,,,,,,,,,,,,,,,,,,,,,,,,,,,,,,,,,,,,,,,,,,,,30,,,,,,,,1780.243779299999,1780.243779299999,1780.243779299999,1780.243779299999,1780.243779299999,left,1.1773970999965968,4,0,0,99,0.07999999999999997,-0.24,left,1.099647899998672,,,,,,,,,,,,,,,,,,,,,,,,,,,,,,,,,,,,,,,,,,,,,,,,,,,,,,,,,,,,ZX8Z3G,train_x,red_square,bottom_right,2025-06-14_16h13.25.745,HideSeek_v1,2022.2.5,59.989549819851696,
,7,2,4,2,-3,0,46,,train_dim1_1,11,30,,,,2,0,2,0,,,,,,,,,0,0,0,0,0,10,10,10,4,0,4,0,,,,,,,,,,,,,,,,,,,,,,,,,,,,,,,,,,,,,,,,,,,,,,,,,,,,,,,,,,,,,,,,30,,,,,,,,1781.427682900001,1781.427682900001,1781.427682900001,1781.427682900001,1781.427682900001,return,0.8937785000016447,4,1,0,0,0.07999999999999997,-0.24,return,0.8160496999989846,0,-26,0.07999999999999997,-0.24,,,,,,,,,,,,,,,,,,,,,,,,,,,,,,,,,,,,,,,,,,,,,,,,,,,,,,,,ZX8Z3G,train_x,red_square,bottom_right,2025-06-14_16h13.25.745,HideSeek_v1,2022.2.5,59.989549819851696,
,5,0,4,0,-1,0,26,,train_dim1_1,12,30,,,,2,0,2,0,,,,,,,,,0,0,0,0,0,11,11,11,0,0,0,0,,,,,,,,,,,,,,,,,,,,,,,,,stimuli/alien_stimuli/26.png,,,,,,,,,,,,,,,,,,,,,,,,,,,,,stimuli/alien_stimuli/46.png,46,7,13,,,,,,,30,,,,,,,,1787.9336842999983,1787.9336842999983,1787.9336842999983,1787.9336842999983,1787.9336842999983,up,5.043265100001008,4,1,0,99,0.24,-0.32,up,4.934964299998683,,,,,1786.3514637999979,1787.9336842999983,0.16,-0.24,0.0,0.24,-0.24,0.16,0.28,0.16,-0.24,1783.8907851000004,1783.8907851000004,1783.8907851000004,1783.8907851000004,1783.8907851000004,1783.8907851000004,1783.8907851000004,1783.8907851000004,1783.8827166699998,2.571054899999581,return,2.439238499999192,,,,,,,,,,,,,,,,,,,,,,,,,,,,,,,,,ZX8Z3G,train_x,red_square,bottom_right,2025-06-14_16h13.25.745,HideSeek_v1,2022.2.5,59.989549819851696,
,5,0,4,0,-1,0,26,,train_dim1_1,12,30,,,,2,0,2,0,,,,,,,,,0,0,0,0,0,11,11,11,1,0,1,0,,,,,,,,,,,,,,,,,,,,,,,,,,,,,,,,,,,,,,,,,,,,,,,,,,,,,,,,,,,,,,,,30,,,,,,,,1792.9580433999981,1792.9580433999981,1792.9580433999981,1792.9580433999981,1792.9580433999981,up,4.8296880000016245,4,1,0,99,0.24,-0.24,up,4.753646799999842,,,,,,,,,,,,,,,,,,,,,,,,,,,,,,,,,,,,,,,,,,,,,,,,,,,,,,,,,,,,ZX8Z3G,train_x,red_square,bottom_right,2025-06-14_16h13.25.745,HideSeek_v1,2022.2.5,59.989549819851696,
,5,0,4,0,-1,0,26,,train_dim1_1,12,30,,,,2,0,2,0,,,,,,,,,0,0,0,0,0,11,11,11,2,0,2,0,,,,,,,,,,,,,,,,,,,,,,,,,,,,,,,,,,,,,,,,,,,,,,,,,,,,,,,,,,,,,,,,30,,,,,,,,1797.7947572000012,1797.7947572000012,1797.7947572000012,1797.7947572000012,1797.7947572000012,return,2.011388999999326,4,0,0,0,0.24,-0.24,return,1.9310949999962759,2,-26,0.24,-0.24,,,,,,,,,,,,,,,,,,,,,,,,,,,,,,,,,,,,,,,,,,,,,,,,,,,,,,,,ZX8Z3G,train_x,red_square,bottom_right,2025-06-14_16h13.25.745,HideSeek_v1,2022.2.5,59.989549819851696,
,5,4,1,4,-4,0,56,,train_dim1_1,13,30,,,,2,0,2,0,,,,,,,,,0,0,0,0,0,12,12,12,0,0,0,0,,,,,,,,,,,,,,,,,,,,,,,,,stimuli/alien_stimuli/56.png,,,,,,,,,,,,,,,,,,,,,,,,,,,,,stimuli/alien_stimuli/26.png,26,5,14,,,,,,,30,,,,,,,,1804.9594317999981,1804.9594317999981,1804.9594317999981,1804.9594317999981,1804.9594317999981,left,4.826769300001615,4,0,0,99,0.15999999999999998,-0.08,left,4.723385299999791,,,,,1803.382136600001,1804.9594317999981,0.16,-0.4,0.0,0.08,-0.4,0.16,0.2,0.16,-0.4,1801.3958889999994,1801.3958889999994,1801.3958889999994,1801.3958889999994,1801.3958889999994,1801.3958889999994,1801.3958889999994,1801.3958889999994,1801.3802841800004,2.1210739000016474,return,1.969734199999948,,,,,,,,,,,,,,,,,,,,,,,,,,,,,,,,,ZX8Z3G,train_x,red_square,bottom_right,2025-06-14_16h13.25.745,HideSeek_v1,2022.2.5,59.989549819851696,
,5,4,1,4,-4,0,56,,train_dim1_1,13,30,,,,2,0,2,0,,,,,,,,,0,0,0,0,0,12,12,12,1,0,1,0,,,,,,,,,,,,,,,,,,,,,,,,,,,,,,,,,,,,,,,,,,,,,,,,,,,,,,,,,,,,,,,,30,,,,,,,,1809.7715906999983,1809.7715906999983,1809.7715906999983,1809.7715906999983,1809.7715906999983,left,1.2765416000002006,4,0,0,99,0.07999999999999997,-0.08,left,1.191584399999556,,,,,,,,,,,,,,,,,,,,,,,,,,,,,,,,,,,,,,,,,,,,,,,,,,,,,,,,,,,,ZX8Z3G,train_x,red_square,bottom_right,2025-06-14_16h13.25.745,HideSeek_v1,2022.2.5,59.989549819851696,
,5,4,1,4,-4,0,56,,train_dim1_1,13,30,,,,2,0,2,0,,,,,,,,,0,0,0,0,0,12,12,12,2,0,2,0,,,,,,,,,,,,,,,,,,,,,,,,,,,,,,,,,,,,,,,,,,,,,,,,,,,,,,,,,,,,,,,,30,,,,,,,,1811.0535232000002,1811.0535232000002,1811.0535232000002,1811.0535232000002,1811.0535232000002,return,0.7104232000019692,4,0,0,0,0.07999999999999997,-0.08,return,0.6199781999966945,2,-28,0.07999999999999997,-0.08,,,,,,,,,,,,,,,,,,,,,,,,,,,,,,,,,,,,,,,,,,,,,,,,,,,,,,,,ZX8Z3G,train_x,red_square,bottom_right,2025-06-14_16h13.25.745,HideSeek_v1,2022.2.5,59.989549819851696,
,9,3,9,3,0,0,16,,train_dim1_1,14,30,,,,2,0,2,0,,,,,,,,,0,0,0,0,0,13,13,13,0,0,0,0,,,,,,,,,,,,,,,,,,,,,,,,,stimuli/alien_stimuli/16.png,,,,,,,,,,,,,,,,,,,,,,,,,,,,,stimuli/alien_stimuli/56.png,56,5,15,,,,,,,30,,,,,,,,1817.189617699998,1817.189617699998,1817.189617699998,1817.189617699998,1817.189617699998,return,1.7561547999976028,5,0,0,1,0.56,-0.16,return,1.6554062999966845,2,-28,0.56,-0.16,1815.6091557,1817.189617699998,-0.08,-0.08,0.0,0.32,-0.08,-0.08,0.07999999999999999,-0.08,-0.08,1813.3303840000008,1813.3303840000008,1813.3303840000008,1813.3303840000008,1813.3303840000008,1813.3303840000008,1813.3303840000008,1813.3303840000008,1813.3235435700012,2.3876820000004955,return,2.258522300002369,,,,,,,,,,,,,,,,,,,,,,,,,,,,,,,,,ZX8Z3G,train_x,red_square,bottom_right,2025-06-14_16h13.25.745,HideSeek_v1,2022.2.5,59.989549819851696,
,9,2,4,2,-5,0,66,,train_dim1_1,15,30,,,,2,0,2,0,,,,,,,,,0,0,0,0,0,14,14,14,0,0,0,0,,,,,,,,,,,,,,,,,,,,,,,,,stimuli/alien_stimuli/66.png,,,,,,,,,,,,,,,,,,,,,,,,,,,,,stimuli/alien_stimuli/16.png,16,9,16,,,,,,,30,,,,,,,,1823.2563967999995,1823.2563967999995,1823.2563967999995,1823.2563967999995,1823.2563967999995,left,1.5902281000016956,5,0,0,99,0.48000000000000004,-0.24,left,1.5001693000012892,,,,,1821.6975276999983,1823.2563967999995,0.56,-0.16,0.0,0.0,-0.16,0.56,0.56,0.56,-0.16,1820.4866260999988,1820.4866260999988,1820.4866260999988,1820.4866260999988,1820.4866260999988,1820.4866260999988,1820.4866260999988,1820.4866260999988,1820.479900570001,1.3196124999994936,return,1.1820198999994318,,,,,,,,,,,,,,,,,,,,,,,,,,,,,,,,,ZX8Z3G,train_x,red_square,bottom_right,2025-06-14_16h13.25.745,HideSeek_v1,2022.2.5,59.989549819851696,
,9,2,4,2,-5,0,66,,train_dim1_1,15,30,,,,2,0,2,0,,,,,,,,,0,0,0,0,0,14,14,14,1,0,1,0,,,,,,,,,,,,,,,,,,,,,,,,,,,,,,,,,,,,,,,,,,,,,,,,,,,,,,,,,,,,,,,,30,,,,,,,,1824.847555799999,1824.847555799999,1824.847555799999,1824.847555799999,1824.847555799999,left,0.5933731999975862,5,0,0,99,0.4,-0.24,left,0.5187504999994417,,,,,,,,,,,,,,,,,,,,,,,,,,,,,,,,,,,,,,,,,,,,,,,,,,,,,,,,,,,,ZX8Z3G,train_x,red_square,bottom_right,2025-06-14_16h13.25.745,HideSeek_v1,2022.2.5,59.989549819851696,
,9,2,4,2,-5,0,66,,train_dim1_1,15,30,,,,2,0,2,0,,,,,,,,,0,0,0,0,0,14,14,14,2,0,2,0,,,,,,,,,,,,,,,,,,,,,,,,,,,,,,,,,,,,,,,,,,,,,,,,,,,,,,,,,,,,,,,,30,,,,,,,,1825.4466933000003,1825.4466933000003,1825.4466933000003,1825.4466933000003,1825.4466933000003,left,0.6937558999998146,5,0,0,99,0.32,-0.24,left,0.6135050999982923,,,,,,,,,,,,,,,,,,,,,,,,,,,,,,,,,,,,,,,,,,,,,,,,,,,,,,,,,,,,ZX8Z3G,train_x,red_square,bottom_right,2025-06-14_16h13.25.745,HideSeek_v1,2022.2.5,59.989549819851696,
,9,2,4,2,-5,0,66,,train_dim1_1,15,30,,,,2,0,2,0,,,,,,,,,0,0,0,0,0,14,14,14,3,0,3,0,,,,,,,,,,,,,,,,,,,,,,,,,,,,,,,,,,,,,,,,,,,,,,,,,,,,,,,,,,,,,,,,30,,,,,,,,1826.1485826999997,1826.1485826999997,1826.1485826999997,1826.1485826999997,1826.1485826999997,left,0.6764201999976649,5,0,0,99,0.24,-0.24,left,0.5986851999987266,,,,,,,,,,,,,,,,,,,,,,,,,,,,,,,,,,,,,,,,,,,,,,,,,,,,,,,,,,,,ZX8Z3G,train_x,red_square,bottom_right,2025-06-14_16h13.25.745,HideSeek_v1,2022.2.5,59.989549819851696,
,9,2,4,2,-5,0,66,,train_dim1_1,15,30,,,,2,0,2,0,,,,,,,,,0,0,0,0,0,14,14,14,4,0,4,0,,,,,,,,,,,,,,,,,,,,,,,,,,,,,,,,,,,,,,,,,,,,,,,,,,,,,,,,,,,,,,,,30,,,,,,,,1826.8324783999997,1826.8324783999997,1826.8324783999997,1826.8324783999997,1826.8324783999997,left,0.626722000000882,5,0,0,99,0.15999999999999998,-0.24,left,0.5456650000014633,,,,,,,,,,,,,,,,,,,,,,,,,,,,,,,,,,,,,,,,,,,,,,,,,,,,,,,,,,,,ZX8Z3G,train_x,red_square,bottom_right,2025-06-14_16h13.25.745,HideSeek_v1,2022.2.5,59.989549819851696,
,9,2,4,2,-5,0,66,,train_dim1_1,15,30,,,,2,0,2,0,,,,,,,,,0,0,0,0,0,14,14,14,5,0,5,0,,,,,,,,,,,,,,,,,,,,,,,,,,,,,,,,,,,,,,,,,,,,,,,,,,,,,,,,,,,,,,,,30,,,,,,,,1827.4658161000007,1827.4658161000007,1827.4658161000007,1827.4658161000007,1827.4658161000007,return,0.6602351000001363,6,0,0,1,0.15999999999999998,-0.24,return,0.572338400001172,2,-33,0.15999999999999998,-0.24,,,,,,,,,,,,,,,,,,,,,,,,,,,,,,,,,,,,,,,,,,,,,,,,,,,,,,,,ZX8Z3G,train_x,red_square,bottom_right,2025-06-14_16h13.25.745,HideSeek_v1,2022.2.5,59.989549819851696,
,8,3,4,3,-4,0,56,,train_dim1_1,16,30,,,,2,0,2,0,,,,,,,,,0,0,0,0,0,15,15,15,0,0,0,0,,,,,,,,,,,,,,,,,,,,,,,,,stimuli/alien_stimuli/56.png,,,,,,,,,,,,,,,,,,,,,,,,,,,,,stimuli/alien_stimuli/66.png,66,9,17,,,,,,,30,,,,,,,,1832.4351210999994,1832.4351210999994,1832.4351210999994,1832.4351210999994,1832.4351210999994,left,2.6907778999993752,6,0,0,99,0.39999999999999997,-0.16,left,2.5803953999966325,,,,,1830.8546805000005,1832.4351210999994,0.16,-0.24,0.0,0.4,-0.24,0.16,0.36000000000000004,0.16,-0.24,1829.686817599999,1829.686817599999,1829.686817599999,1829.686817599999,1829.686817599999,1829.686817599999,1829.686817599999,1829.686817599999,1829.67060556,1.27056690000245,return,1.1365704999989248,,,,,,,,,,,,,,,,,,,,,,,,,,,,,,,,,ZX8Z3G,train_x,red_square,bottom_right,2025-06-14_16h13.25.745,HideSeek_v1,2022.2.5,59.989549819851696,
,8,3,4,3,-4,0,56,,train_dim1_1,16,30,,,,2,0,2,0,,,,,,,,,0,0,0,0,0,15,15,15,1,0,1,0,,,,,,,,,,,,,,,,,,,,,,,,,,,,,,,,,,,,,,,,,,,,,,,,,,,,,,,,,,,,,,,,30,,,,,,,,1835.1083042999999,1835.1083042999999,1835.1083042999999,1835.1083042999999,1835.1083042999999,left,0.5928189000005659,6,0,0,99,0.31999999999999995,-0.16,left,0.5113086999990628,,,,,,,,,,,,,,,,,,,,,,,,,,,,,,,,,,,,,,,,,,,,,,,,,,,,,,,,,,,,ZX8Z3G,train_x,red_square,bottom_right,2025-06-14_16h13.25.745,HideSeek_v1,2022.2.5,59.989549819851696,
,8,3,4,3,-4,0,56,,train_dim1_1,16,30,,,,2,0,2,0,,,,,,,,,0,0,0,0,0,15,15,15,2,0,2,0,,,,,,,,,,,,,,,,,,,,,,,,,,,,,,,,,,,,,,,,,,,,,,,,,,,,,,,,,,,,,,,,30,,,,,,,,1835.7082139999984,1835.7082139999984,1835.7082139999984,1835.7082139999984,1835.7082139999984,left,0.7437695999979042,6,0,0,99,0.23999999999999994,-0.16,left,0.6641383999995014,,,,,,,,,,,,,,,,,,,,,,,,,,,,,,,,,,,,,,,,,,,,,,,,,,,,,,,,,,,,ZX8Z3G,train_x,red_square,bottom_right,2025-06-14_16h13.25.745,HideSeek_v1,2022.2.5,59.989549819851696,
,8,3,4,3,-4,0,56,,train_dim1_1,16,30,,,,2,0,2,0,,,,,,,,,0,0,0,0,0,15,15,15,3,0,3,0,,,,,,,,,,,,,,,,,,,,,,,,,,,,,,,,,,,,,,,,,,,,,,,,,,,,,,,,,,,,,,,,30,,,,,,,,1836.4585727000012,1836.4585727000012,1836.4585727000012,1836.4585727000012,1836.4585727000012,left,0.6103058000007877,6,0,0,99,0.15999999999999992,-0.16,left,0.5205662000007578,,,,,,,,,,,,,,,,,,,,,,,,,,,,,,,,,,,,,,,,,,,,,,,,,,,,,,,,,,,,ZX8Z3G,train_x,red_square,bottom_right,2025-06-14_16h13.25.745,HideSeek_v1,2022.2.5,59.989549819851696,
,8,3,4,3,-4,0,56,,train_dim1_1,16,30,,,,2,0,2,0,,,,,,,,,0,0,0,0,0,15,15,15,4,0,4,0,,,,,,,,,,,,,,,,,,,,,,,,,,,,,,,,,,,,,,,,,,,,,,,,,,,,,,,,,,,,,,,,30,,,,,,,,1837.0757350999993,1837.0757350999993,1837.0757350999993,1837.0757350999993,1837.0757350999993,return,0.5933783000000403,7,0,0,1,0.15999999999999992,-0.16,return,0.517580600000656,2,-37,0.15999999999999992,-0.16,,,,,,,,,,,,,,,,,,,,,,,,,,,,,,,,,,,,,,,,,,,,,,,,,,,,,,,,ZX8Z3G,train_x,red_square,bottom_right,2025-06-14_16h13.25.745,HideSeek_v1,2022.2.5,59.989549819851696,
,7,4,6,4,-1,0,26,,train_dim1_1,17,30,,,,2,0,2,0,,,,,,,,,0,0,0,0,0,16,16,16,0,0,0,0,,,,,,,,,,,,,,,,,,,,,,,,,stimuli/alien_stimuli/26.png,,,,,,,,,,,,,,,,,,,,,,,,,,,,,stimuli/alien_stimuli/56.png,56,8,18,,,,,,,30,,,,,,,,1842.7487660999977,1842.7487660999977,1842.7487660999977,1842.7487660999977,1842.7487660999977,left,3.841435199999978,7,0,0,99,0.32,-0.08,left,3.735434800000803,,,,,1841.1637891999999,1842.7487660999977,0.16,-0.16,0.0,0.32,-0.16,0.16,0.32,0.16,-0.16,1839.2324880999986,1839.2324880999986,1839.2324880999986,1839.2324880999986,1839.2324880999986,1839.2324880999986,1839.2324880999986,1839.2324880999986,1839.2120839599986,2.0369527999973798,return,1.9043452000005345,,,,,,,,,,,,,,,,,,,,,,,,,,,,,,,,,ZX8Z3G,train_x,red_square,bottom_right,2025-06-14_16h13.25.745,HideSeek_v1,2022.2.5,59.989549819851696,
,7,4,6,4,-1,0,26,,train_dim1_1,17,30,,,,2,0,2,0,,,,,,,,,0,0,0,0,0,16,16,16,1,0,1,0,,,,,,,,,,,,,,,,,,,,,,,,,,,,,,,,,,,,,,,,,,,,,,,,,,,,,,,,,,,,,,,,30,,,,,,,,1846.568675800001,1846.568675800001,1846.568675800001,1846.568675800001,1846.568675800001,return,2.2447568999996292,8,0,0,1,0.32,-0.08,return,2.165571199999249,2,-38,0.32,-0.08,,,,,,,,,,,,,,,,,,,,,,,,,,,,,,,,,,,,,,,,,,,,,,,,,,,,,,,,ZX8Z3G,train_x,red_square,bottom_right,2025-06-14_16h13.25.745,HideSeek_v1,2022.2.5,59.989549819851696,
,7,1,2,1,-5,0,66,,train_dim1_1,18,30,,,,2,0,2,0,,,,,,,,,0,0,0,0,0,17,17,17,0,0,0,0,,,,,,,,,,,,,,,,,,,,,,,,,stimuli/alien_stimuli/66.png,,,,,,,,,,,,,,,,,,,,,,,,,,,,,stimuli/alien_stimuli/26.png,26,7,19,,,,,,,30,,,,,,,,1852.9504578999986,1852.9504578999986,1852.9504578999986,1852.9504578999986,1852.9504578999986,left,1.9230581000010716,8,0,0,99,0.32,-0.32,left,1.8139898999979778,,,,,1851.371905699998,1852.9504578999986,0.32,-0.08,0.0,0.08,-0.08,0.32,0.36,0.32,-0.08,1850.3979256999992,1850.3979256999992,1850.3979256999992,1850.3979256999992,1850.3979256999992,1850.3979256999992,1850.3979256999992,1850.3979256999992,1850.3877163800005,1.103516800001671,return,0.9574152999994112,,,,,,,,,,,,,,,,,,,,,,,,,,,,,,,,,ZX8Z3G,train_x,red_square,bottom_right,2025-06-14_16h13.25.745,HideSeek_v1,2022.2.5,59.989549819851696,
,7,1,2,1,-5,0,66,,train_dim1_1,18,30,,,,2,0,2,0,,,,,,,,,0,0,0,0,0,17,17,17,1,0,1,0,,,,,,,,,,,,,,,,,,,,,,,,,,,,,,,,,,,,,,,,,,,,,,,,,,,,,,,,,,,,,,,,30,,,,,,,,1854.8567820999997,1854.8567820999997,1854.8567820999997,1854.8567820999997,1854.8567820999997,left,0.509647999999288,8,0,0,99,0.24,-0.32,left,0.4268886999998358,,,,,,,,,,,,,,,,,,,,,,,,,,,,,,,,,,,,,,,,,,,,,,,,,,,,,,,,,,,,ZX8Z3G,train_x,red_square,bottom_right,2025-06-14_16h13.25.745,HideSeek_v1,2022.2.5,59.989549819851696,
,7,1,2,1,-5,0,66,,train_dim1_1,18,30,,,,2,0,2,0,,,,,,,,,0,0,0,0,0,17,17,17,2,0,2,0,,,,,,,,,,,,,,,,,,,,,,,,,,,,,,,,,,,,,,,,,,,,,,,,,,,,,,,,,,,,,,,,30,,,,,,,,1855.3717130000005,1855.3717130000005,1855.3717130000005,1855.3717130000005,1855.3717130000005,left,0.5267891000003146,8,0,0,99,0.15999999999999998,-0.32,left,0.44562539999969886,,,,,,,,,,,,,,,,,,,,,,,,,,,,,,,,,,,,,,,,,,,,,,,,,,,,,,,,,,,,ZX8Z3G,train_x,red_square,bottom_right,2025-06-14_16h13.25.745,HideSeek_v1,2022.2.5,59.989549819851696,
,7,1,2,1,-5,0,66,,train_dim1_1,18,30,,,,2,0,2,0,,,,,,,,,0,0,0,0,0,17,17,17,3,0,3,0,,,,,,,,,,,,,,,,,,,,,,,,,,,,,,,,,,,,,,,,,,,,,,,,,,,,,,,,,,,,,,,,30,,,,,,,,1855.9092229999987,1855.9092229999987,1855.9092229999987,1855.9092229999987,1855.9092229999987,left,0.593857100000605,8,0,0,99,0.07999999999999997,-0.32,left,0.5050236999995832,,,,,,,,,,,,,,,,,,,,,,,,,,,,,,,,,,,,,,,,,,,,,,,,,,,,,,,,,,,,ZX8Z3G,train_x,red_square,bottom_right,2025-06-14_16h13.25.745,HideSeek_v1,2022.2.5,59.989549819851696,
,7,1,2,1,-5,0,66,,train_dim1_1,18,30,,,,2,0,2,0,,,,,,,,,0,0,0,0,0,17,17,17,4,0,4,0,,,,,,,,,,,,,,,,,,,,,,,,,,,,,,,,,,,,,,,,,,,,,,,,,,,,,,,,,,,,,,,,30,,,,,,,,1856.5060674999986,1856.5060674999986,1856.5060674999986,1856.5060674999986,1856.5060674999986,left,0.5764891999970132,8,0,0,99,-2.7755575615628914e-17,-0.32,left,0.5012887999982922,,,,,,,,,,,,,,,,,,,,,,,,,,,,,,,,,,,,,,,,,,,,,,,,,,,,,,,,,,,,ZX8Z3G,train_x,red_square,bottom_right,2025-06-14_16h13.25.745,HideSeek_v1,2022.2.5,59.989549819851696,
,7,1,2,1,-5,0,66,,train_dim1_1,18,30,,,,2,0,2,0,,,,,,,,,0,0,0,0,0,17,17,17,5,0,5,0,,,,,,,,,,,,,,,,,,,,,,,,,,,,,,,,,,,,,,,,,,,,,,,,,,,,,,,,,,,,,,,,30,,,,,,,,1857.0909967000007,1857.0909967000007,1857.0909967000007,1857.0909967000007,1857.0909967000007,return,0.6933374000000185,9,0,0,1,-2.7755575615628914e-17,-0.32,return,0.6062440999994578,2,-43,-2.7755575615628914e-17,-0.32,,,,,,,,,,,,,,,,,,,,,,,,,,,,,,,,,,,,,,,,,,,,,,,,,,,,,,,,ZX8Z3G,train_x,red_square,bottom_right,2025-06-14_16h13.25.745,HideSeek_v1,2022.2.5,59.989549819851696,
,5,3,2,3,-3,0,46,,train_dim1_1,19,30,,,,2,0,2,0,,,,,,,,,0,0,0,0,0,18,18,18,0,0,0,0,,,,,,,,,,,,,,,,,,,,,,,,,stimuli/alien_stimuli/46.png,,,,,,,,,,,,,,,,,,,,,,,,,,,,,stimuli/alien_stimuli/66.png,66,7,20,,,,,,,30,,,,,,,,1861.9225172000006,1861.9225172000006,1861.9225172000006,1861.9225172000006,1861.9225172000006,up,7.693968700001278,9,0,0,99,0.24,-0.08,up,7.608876499998587,,,,,1860.3627635000012,1861.9225172000006,0,-0.32,0.0,0.4,-0.32,0,0.2,0,-0.32,1859.3477080000011,1859.3477080000011,1859.3477080000011,1859.3477080000011,1859.3477080000011,1859.3477080000011,1859.3477080000011,1859.3477080000011,1859.3284179600007,1.1198466999994707,return,0.9975589999994554,,,,,,,,,,,,,,,,,,,,,,,,,,,,,,,,,ZX8Z3G,train_x,red_square,bottom_right,2025-06-14_16h13.25.745,HideSeek_v1,2022.2.5,59.989549819851696,
,5,3,2,3,-3,0,46,,train_dim1_1,19,30,,,,2,0,2,0,,,,,,,,,0,0,0,0,0,18,18,18,1,0,1,0,,,,,,,,,,,,,,,,,,,,,,,,,,,,,,,,,,,,,,,,,,,,,,,,,,,,,,,,,,,,,,,,30,,,,,,,,1869.6171486999992,1869.6171486999992,1869.6171486999992,1869.6171486999992,1869.6171486999992,up,0.743378399998619,9,0,0,99,0.24,0.0,up,0.6706468999982462,,,,,,,,,,,,,,,,,,,,,,,,,,,,,,,,,,,,,,,,,,,,,,,,,,,,,,,,,,,,ZX8Z3G,train_x,red_square,bottom_right,2025-06-14_16h13.25.745,HideSeek_v1,2022.2.5,59.989549819851696,
,5,3,2,3,-3,0,46,,train_dim1_1,19,30,,,,2,0,2,0,,,,,,,,,0,0,0,0,0,18,18,18,2,0,2,0,,,,,,,,,,,,,,,,,,,,,,,,,,,,,,,,,,,,,,,,,,,,,,,,,,,,,,,,,,,,,,,,30,,,,,,,,1870.3669698000012,1870.3669698000012,1870.3669698000012,1870.3669698000012,1870.3669698000012,return,0.7272548000000825,9,0,0,0,0.24,0.0,return,0.6495231999979296,4,-43,0.24,0.0,,,,,,,,,,,,,,,,,,,,,,,,,,,,,,,,,,,,,,,,,,,,,,,,,,,,,,,,ZX8Z3G,train_x,red_square,bottom_right,2025-06-14_16h13.25.745,HideSeek_v1,2022.2.5,59.989549819851696,
,5,1,5,1,0,0,16,,train_dim1_1,20,30,,,,2,0,2,0,,,,,,,,,0,0,0,0,0,19,19,19,0,0,0,0,,,,,,,,,,,,,,,,,,,,,,,,,stimuli/alien_stimuli/16.png,,,,,,,,,,,,,,,,,,,,,,,,,,,,,stimuli/alien_stimuli/46.png,46,5,21,,,,,,,30,,,,,,,,1875.506557599998,1875.506557599998,1875.506557599998,1875.506557599998,1875.506557599998,return,1.3719935000008263,10,0,0,1,0.24,-0.32,return,1.2622995999990962,4,-43,0.24,-0.32,1873.9240699000002,1875.506557599998,0,-0.16,0.0,0.24,-0.16,0,0.12,0,-0.16,1872.6614639,1872.6614639,1872.6614639,1872.6614639,1872.6614639,1872.6614639,1872.6614639,1872.6614639,1872.639409759998,1.370383600002242,return,1.2364034999991418,,,,,,,,,,,,,,,,,,,,,,,,,,,,,,,,,ZX8Z3G,train_x,red_square,bottom_right,2025-06-14_16h13.25.745,HideSeek_v1,2022.2.5,59.989549819851696,
,9,2,6,2,-3,0,46,,train_dim1_1,21,30,,,,2,0,2,0,,,,,,,,,0,0,0,0,0,20,20,20,0,0,0,0,,,,,,,,,,,,,,,,,,,,,,,,,stimuli/alien_stimuli/46.png,,,,,,,,,,,,,,,,,,,,,,,,,,,,,stimuli/alien_stimuli/16.png,16,5,22,,,,,,,30,,,,,,,,1881.1531166999994,1881.1531166999994,1881.1531166999994,1881.1531166999994,1881.1531166999994,left,4.710068099997443,10,0,0,99,0.48000000000000004,-0.24,left,4.616075999998429,,,,,1879.5956458,1881.1531166999994,0.24,-0.32,0.0,0.0,-0.32,0.24,0.24,0.24,-0.32,1878.418228999999,1878.418228999999,1878.418228999999,1878.418228999999,1878.418228999999,1878.418228999999,1878.418228999999,1878.418228999999,1878.4109099700004,1.2866811999992933,return,1.1459209999993618,,,,,,,,,,,,,,,,,,,,,,,,,,,,,,,,,ZX8Z3G,train_x,red_square,bottom_right,2025-06-14_16h13.25.745,HideSeek_v1,2022.2.5,59.989549819851696,
,9,2,6,2,-3,0,46,,train_dim1_1,21,30,,,,2,0,2,0,,,,,,,,,0,0,0,0,0,20,20,20,1,0,1,0,,,,,,,,,,,,,,,,,,,,,,,,,,,,,,,,,,,,,,,,,,,,,,,,,,,,,,,,,,,,,,,,30,,,,,,,,1885.864807599999,1885.864807599999,1885.864807599999,1885.864807599999,1885.864807599999,left,0.6766032999985327,10,0,0,99,0.4,-0.24,left,0.5902710999980627,,,,,,,,,,,,,,,,,,,,,,,,,,,,,,,,,,,,,,,,,,,,,,,,,,,,,,,,,,,,ZX8Z3G,train_x,red_square,bottom_right,2025-06-14_16h13.25.745,HideSeek_v1,2022.2.5,59.989549819851696,
,9,2,6,2,-3,0,46,,train_dim1_1,21,30,,,,2,0,2,0,,,,,,,,,0,0,0,0,0,20,20,20,2,0,2,0,,,,,,,,,,,,,,,,,,,,,,,,,,,,,,,,,,,,,,,,,,,,,,,,,,,,,,,,,,,,,,,,30,,,,,,,,1886.548150300001,1886.548150300001,1886.548150300001,1886.548150300001,1886.548150300001,left,0.7434938000005786,10,0,0,99,0.32,-0.24,left,0.6656046999996761,,,,,,,,,,,,,,,,,,,,,,,,,,,,,,,,,,,,,,,,,,,,,,,,,,,,,,,,,,,,ZX8Z3G,train_x,red_square,bottom_right,2025-06-14_16h13.25.745,HideSeek_v1,2022.2.5,59.989549819851696,
,9,2,6,2,-3,0,46,,train_dim1_1,21,30,,,,2,0,2,0,,,,,,,,,0,0,0,0,0,20,20,20,3,0,3,0,,,,,,,,,,,,,,,,,,,,,,,,,,,,,,,,,,,,,,,,,,,,,,,,,,,,,,,,,,,,,,,,30,,,,,,,,1887.2975631000008,1887.2975631000008,1887.2975631000008,1887.2975631000008,1887.2975631000008,return,3.029262700001709,11,0,0,1,0.32,-0.24,return,2.943467699999019,4,-46,0.32,-0.24,,,,,,,,,,,,,,,,,,,,,,,,,,,,,,,,,,,,,,,,,,,,,,,,,,,,,,,,ZX8Z3G,train_x,red_square,bottom_right,2025-06-14_16h13.25.745,HideSeek_v1,2022.2.5,59.989549819851696,
,6,0,5,0,-1,0,26,,train_dim1_1,22,30,,,,2,0,2,0,,,,,,,,,0,0,0,0,0,21,21,21,0,0,0,0,,,,,,,,,,,,,,,,,,,,,,,,,stimuli/alien_stimuli/26.png,,,,,,,,,,,,,,,,,,,,,,,,,,,,,stimuli/alien_stimuli/46.png,46,9,23,,,,,,,30,,,,,,,,1894.6945054999997,1894.6945054999997,1894.6945054999997,1894.6945054999997,1894.6945054999997,left,6.042819400001463,11,0,0,99,0.24,-0.4,left,5.920518899998569,,,,,1893.1064798999978,1894.6945054999997,0.32,-0.24,0.0,0.24,-0.24,0.32,0.44000000000000006,0.32,-0.24,1891.9129565000003,1891.9129565000003,1891.9129565000003,1891.9129565000003,1891.9129565000003,1891.9129565000003,1891.9129565000003,1891.9129565000003,1891.905375879998,1.3201761999989685,return,1.1678476999986742,,,,,,,,,,,,,,,,,,,,,,,,,,,,,,,,,ZX8Z3G,train_x,red_square,bottom_right,2025-06-14_16h13.25.745,HideSeek_v1,2022.2.5,59.989549819851696,
,6,0,5,0,-1,0,26,,train_dim1_1,22,30,,,,2,0,2,0,,,,,,,,,0,0,0,0,0,21,21,21,1,0,1,0,,,,,,,,,,,,,,,,,,,,,,,,,,,,,,,,,,,,,,,,,,,,,,,,,,,,,,,,,,,,,,,,30,,,,,,,,1900.7144289999997,1900.7144289999997,1900.7144289999997,1900.7144289999997,1900.7144289999997,return,0.843812799997977,12,0,0,1,0.24,-0.4,return,0.7571564999961993,4,-47,0.24,-0.4,,,,,,,,,,,,,,,,,,,,,,,,,,,,,,,,,,,,,,,,,,,,,,,,,,,,,,,,ZX8Z3G,train_x,red_square,bottom_right,2025-06-14_16h13.25.745,HideSeek_v1,2022.2.5,59.989549819851696,
,7,1,2,1,-5,0,66,,train_dim1_1,23,30,,,,2,0,2,0,,,,,,,,,0,0,0,0,0,22,22,22,0,0,0,0,,,,,,,,,,,,,,,,,,,,,,,,,stimuli/alien_stimuli/66.png,,,,,,,,,,,,,,,,,,,,,,,,,,,,,stimuli/alien_stimuli/26.png,26,6,24,,,,,,,30,,,,,,,,1905.7260386999988,1905.7260386999988,1905.7260386999988,1905.7260386999988,1905.7260386999988,left,1.1568595999997342,12,0,0,99,0.32,-0.32,left,1.0545722999995633,,,,,1904.1490589999994,1905.7260386999988,0.24,-0.4,0.0,0.08,-0.4,0.24,0.28,0.24,-0.4,1903.1216389,1903.1216389,1903.1216389,1903.1216389,1903.1216389,1903.1216389,1903.1216389,1903.1216389,1903.1148093699999,1.1363205999987258,return,1.0103220999990299,,,,,,,,,,,,,,,,,,,,,,,,,,,,,,,,,ZX8Z3G,train_x,red_square,bottom_right,2025-06-14_16h13.25.745,HideSeek_v1,2022.2.5,59.989549819851696,
,7,1,2,1,-5,0,66,,train_dim1_1,23,30,,,,2,0,2,0,,,,,,,,,0,0,0,0,0,22,22,22,1,0,1,0,,,,,,,,,,,,,,,,,,,,,,,,,,,,,,,,,,,,,,,,,,,,,,,,,,,,,,,,,,,,,,,,30,,,,,,,,1906.8707226000006,1906.8707226000006,1906.8707226000006,1906.8707226000006,1906.8707226000006,left,0.6098592000016652,12,0,0,99,0.24,-0.32,left,0.5290171999986342,,,,,,,,,,,,,,,,,,,,,,,,,,,,,,,,,,,,,,,,,,,,,,,,,,,,,,,,,,,,ZX8Z3G,train_x,red_square,bottom_right,2025-06-14_16h13.25.745,HideSeek_v1,2022.2.5,59.989549819851696,
,7,1,2,1,-5,0,66,,train_dim1_1,23,30,,,,2,0,2,0,,,,,,,,,0,0,0,0,0,22,22,22,2,0,2,0,,,,,,,,,,,,,,,,,,,,,,,,,,,,,,,,,,,,,,,,,,,,,,,,,,,,,,,,,,,,,,,,30,,,,,,,,1907.4827674999979,1907.4827674999979,1907.4827674999979,1907.4827674999979,1907.4827674999979,left,0.6435425999989093,12,0,0,99,0.15999999999999998,-0.32,left,0.5648089999995136,,,,,,,,,,,,,,,,,,,,,,,,,,,,,,,,,,,,,,,,,,,,,,,,,,,,,,,,,,,,ZX8Z3G,train_x,red_square,bottom_right,2025-06-14_16h13.25.745,HideSeek_v1,2022.2.5,59.989549819851696,
,7,1,2,1,-5,0,66,,train_dim1_1,23,30,,,,2,0,2,0,,,,,,,,,0,0,0,0,0,22,22,22,3,0,3,0,,,,,,,,,,,,,,,,,,,,,,,,,,,,,,,,,,,,,,,,,,,,,,,,,,,,,,,,,,,,,,,,30,,,,,,,,1908.132712300001,1908.132712300001,1908.132712300001,1908.132712300001,1908.132712300001,left,0.5769128000029013,12,0,0,99,0.07999999999999997,-0.32,left,0.5025734000009834,,,,,,,,,,,,,,,,,,,,,,,,,,,,,,,,,,,,,,,,,,,,,,,,,,,,,,,,,,,,ZX8Z3G,train_x,red_square,bottom_right,2025-06-14_16h13.25.745,HideSeek_v1,2022.2.5,59.989549819851696,
,7,1,2,1,-5,0,66,,train_dim1_1,23,30,,,,2,0,2,0,,,,,,,,,0,0,0,0,0,22,22,22,4,0,4,0,,,,,,,,,,,,,,,,,,,,,,,,,,,,,,,,,,,,,,,,,,,,,,,,,,,,,,,,,,,,,,,,30,,,,,,,,1908.7160672999998,1908.7160672999998,1908.7160672999998,1908.7160672999998,1908.7160672999998,left,0.5603104000001622,12,0,0,99,-2.7755575615628914e-17,-0.32,left,0.4826842999973451,,,,,,,,,,,,,,,,,,,,,,,,,,,,,,,,,,,,,,,,,,,,,,,,,,,,,,,,,,,,ZX8Z3G,train_x,red_square,bottom_right,2025-06-14_16h13.25.745,HideSeek_v1,2022.2.5,59.989549819851696,
,7,1,2,1,-5,0,66,,train_dim1_1,23,30,,,,2,0,2,0,,,,,,,,,0,0,0,0,0,22,22,22,5,0,5,0,,,,,,,,,,,,,,,,,,,,,,,,,,,,,,,,,,,,,,,,,,,,,,,,,,,,,,,,,,,,,,,,30,,,,,,,,1909.2848725000003,1909.2848725000003,1909.2848725000003,1909.2848725000003,1909.2848725000003,return,0.677115499998763,13,0,0,1,-2.7755575615628914e-17,-0.32,return,0.593511099996249,4,-52,-2.7755575615628914e-17,-0.32,,,,,,,,,,,,,,,,,,,,,,,,,,,,,,,,,,,,,,,,,,,,,,,,,,,,,,,,ZX8Z3G,train_x,red_square,bottom_right,2025-06-14_16h13.25.745,HideSeek_v1,2022.2.5,59.989549819851696,
,9,4,5,4,-4,0,56,,train_dim1_1,24,30,,,,2,0,2,0,,,,,,,,,0,0,0,0,0,23,23,23,0,0,0,0,,,,,,,,,,,,,,,,,,,,,,,,,stimuli/alien_stimuli/56.png,,,,,,,,,,,,,,,,,,,,,,,,,,,,,stimuli/alien_stimuli/66.png,66,7,25,,,,,,,30,,,,,,,,1914.546041499998,1914.546041499998,1914.546041499998,1914.546041499998,1914.546041499998,left,2.3072503999974288,13,0,0,99,0.48000000000000004,-0.08,left,2.2045229999966978,,,,,1912.9732159999985,1914.546041499998,0,-0.32,0.0,0.4,-0.32,0,0.2,0,-0.32,1911.5241013999985,1911.5241013999985,1911.5241013999985,1911.5241013999985,1911.5241013999985,1911.5241013999985,1911.5241013999985,1911.5241013999985,1911.5050099600005,1.5533176999997522,return,1.423756100000901,,,,,,,,,,,,,,,,,,,,,,,,,,,,,,,,,ZX8Z3G,train_x,red_square,bottom_right,2025-06-14_16h13.25.745,HideSeek_v1,2022.2.5,59.989549819851696,
,9,4,5,4,-4,0,56,,train_dim1_1,24,30,,,,2,0,2,0,,,,,,,,,0,0,0,0,0,23,23,23,1,0,1,0,,,,,,,,,,,,,,,,,,,,,,,,,,,,,,,,,,,,,,,,,,,,,,,,,,,,,,,,,,,,,,,,30,,,,,,,,1916.8419940999993,1916.8419940999993,1916.8419940999993,1916.8419940999993,1916.8419940999993,left,0.49318189999758033,13,0,0,99,0.4,-0.08,left,0.4083446999975422,,,,,,,,,,,,,,,,,,,,,,,,,,,,,,,,,,,,,,,,,,,,,,,,,,,,,,,,,,,,ZX8Z3G,train_x,red_square,bottom_right,2025-06-14_16h13.25.745,HideSeek_v1,2022.2.5,59.989549819851696,
,9,4,5,4,-4,0,56,,train_dim1_1,24,30,,,,2,0,2,0,,,,,,,,,0,0,0,0,0,23,23,23,2,0,2,0,,,,,,,,,,,,,,,,,,,,,,,,,,,,,,,,,,,,,,,,,,,,,,,,,,,,,,,,,,,,,,,,30,,,,,,,,1917.3425611999992,1917.3425611999992,1917.3425611999992,1917.3425611999992,1917.3425611999992,left,0.5267384999970091,13,0,0,99,0.32,-0.08,left,0.43559869999808143,,,,,,,,,,,,,,,,,,,,,,,,,,,,,,,,,,,,,,,,,,,,,,,,,,,,,,,,,,,,ZX8Z3G,train_x,red_square,bottom_right,2025-06-14_16h13.25.745,HideSeek_v1,2022.2.5,59.989549819851696,
,9,4,5,4,-4,0,56,,train_dim1_1,24,30,,,,2,0,2,0,,,,,,,,,0,0,0,0,0,23,23,23,3,0,3,0,,,,,,,,,,,,,,,,,,,,,,,,,,,,,,,,,,,,,,,,,,,,,,,,,,,,,,,,,,,,,,,,30,,,,,,,,1917.875603299999,1917.875603299999,1917.875603299999,1917.875603299999,1917.875603299999,left,0.5771135000031791,13,0,0,99,0.24,-0.08,left,0.4925258000002941,,,,,,,,,,,,,,,,,,,,,,,,,,,,,,,,,,,,,,,,,,,,,,,,,,,,,,,,,,,,ZX8Z3G,train_x,red_square,bottom_right,2025-06-14_16h13.25.745,HideSeek_v1,2022.2.5,59.989549819851696,
,9,4,5,4,-4,0,56,,train_dim1_1,24,30,,,,2,0,2,0,,,,,,,,,0,0,0,0,0,23,23,23,4,0,4,0,,,,,,,,,,,,,,,,,,,,,,,,,,,,,,,,,,,,,,,,,,,,,,,,,,,,,,,,,,,,,,,,30,,,,,,,,1918.4612233000007,1918.4612233000007,1918.4612233000007,1918.4612233000007,1918.4612233000007,return,0.7936269999991055,14,0,0,1,0.24,-0.08,return,0.7126563999991049,4,-56,0.24,-0.08,,,,,,,,,,,,,,,,,,,,,,,,,,,,,,,,,,,,,,,,,,,,,,,,,,,,,,,,ZX8Z3G,train_x,red_square,bottom_right,2025-06-14_16h13.25.745,HideSeek_v1,2022.2.5,59.989549819851696,
,8,0,8,0,0,0,16,,train_dim1_1,25,30,,,,2,0,2,0,,,,,,,,,0,0,0,0,0,24,24,24,0,0,0,0,,,,,,,,,,,,,,,,,,,,,,,,,stimuli/alien_stimuli/16.png,,,,,,,,,,,,,,,,,,,,,,,,,,,,,stimuli/alien_stimuli/56.png,56,9,26,,,,,,,30,,,,,,,,1923.409003599998,1923.409003599998,1923.409003599998,1923.409003599998,1923.409003599998,return,1.5065692999996827,15,0,0,1,0.48,-0.4,return,1.4002799999980198,4,-56,0.48,-0.4,1921.8304806999986,1923.409003599998,0.24,-0.08,0.0,0.32,-0.08,0.24,0.4,0.24,-0.08,1920.8189323999977,1920.8189323999977,1920.8189323999977,1920.8189323999977,1920.8189323999977,1920.8189323999977,1920.8189323999977,1920.8189323999977,1920.8126571699981,1.1198744000030274,return,0.9835333999981231,,,,,,,,,,,,,,,,,,,,,,,,,,,,,,,,,ZX8Z3G,train_x,red_square,bottom_right,2025-06-14_16h13.25.745,HideSeek_v1,2022.2.5,59.989549819851696,
,6,1,1,1,-5,0,66,,train_dim1_1,26,30,,,,2,0,2,0,,,,,,,,,0,0,0,0,0,25,25,25,0,0,0,0,,,,,,,,,,,,,,,,,,,,,,,,,stimuli/alien_stimuli/66.png,,,,,,,,,,,,,,,,,,,,,,,,,,,,,stimuli/alien_stimuli/16.png,16,8,27,,,,,,,30,,,,,,,,1929.0118838999988,1929.0118838999988,1929.0118838999988,1929.0118838999988,1929.0118838999988,return,1.0245334999999614,15,0,0,0,0.32,-0.32,return,0.9427616999964812,4,-56,0.32,-0.32,1927.4518543000013,1929.0118838999988,0.48,-0.4,0.0,0.0,-0.4,0.48,0.48,0.48,-0.4,1926.4569456999998,1926.4569456999998,1926.4569456999998,1926.4569456999998,1926.4569456999998,1926.4569456999998,1926.4569456999998,1926.4569456999998,1926.434277560001,1.1033901000009791,return,0.976659899999504,,,,,,,,,,,,,,,,,,,,,,,,,,,,,,,,,ZX8Z3G,train_x,red_square,bottom_right,2025-06-14_16h13.25.745,HideSeek_v1,2022.2.5,59.989549819851696,
,5,1,2,1,-3,0,46,,train_dim1_1,27,30,,,,2,0,2,0,,,,,,,,,0,0,0,0,0,26,26,26,0,0,0,0,,,,,,,,,,,,,,,,,,,,,,,,,stimuli/alien_stimuli/46.png,,,,,,,,,,,,,,,,,,,,,,,,,,,,,stimuli/alien_stimuli/66.png,66,6,28,,,,,,,30,,,,,,,,1936.7024409000005,1936.7024409000005,1936.7024409000005,1936.7024409000005,1936.7024409000005,left,4.941088299998228,15,0,0,99,0.15999999999999998,-0.32,left,4.834987599999295,,,,,1935.1248825000002,1936.7024409000005,-0.08,-0.32,0.0,0.4,-0.32,-0.08,0.12,-0.08,-0.32,1931.58842,1931.58842,1931.58842,1931.58842,1931.58842,1931.58842,1931.58842,1931.58842,1931.5718135599993,3.638914199997089,return,3.5160538000018278,,,,,,,,,,,,,,,,,,,,,,,,,,,,,,,,,ZX8Z3G,train_x,red_square,bottom_right,2025-06-14_16h13.25.745,HideSeek_v1,2022.2.5,59.989549819851696,
,5,1,2,1,-3,0,46,,train_dim1_1,27,30,,,,2,0,2,0,,,,,,,,,0,0,0,0,0,26,26,26,1,0,1,0,,,,,,,,,,,,,,,,,,,,,,,,,,,,,,,,,,,,,,,,,,,,,,,,,,,,,,,,,,,,,,,,30,,,,,,,,1941.6280560999985,1941.6280560999985,1941.6280560999985,1941.6280560999985,1941.6280560999985,left,0.5096641999989515,15,0,0,99,0.07999999999999997,-0.32,left,0.43511080000098445,,,,,,,,,,,,,,,,,,,,,,,,,,,,,,,,,,,,,,,,,,,,,,,,,,,,,,,,,,,,ZX8Z3G,train_x,red_square,bottom_right,2025-06-14_16h13.25.745,HideSeek_v1,2022.2.5,59.989549819851696,
,5,1,2,1,-3,0,46,,train_dim1_1,27,30,,,,2,0,2,0,,,,,,,,,0,0,0,0,0,26,26,26,2,0,2,0,,,,,,,,,,,,,,,,,,,,,,,,,,,,,,,,,,,,,,,,,,,,,,,,,,,,,,,,,,,,,,,,30,,,,,,,,1942.1432148999993,1942.1432148999993,1942.1432148999993,1942.1432148999993,1942.1432148999993,left,0.47680429999672924,15,0,0,99,-2.7755575615628914e-17,-0.32,left,0.4053672000009101,,,,,,,,,,,,,,,,,,,,,,,,,,,,,,,,,,,,,,,,,,,,,,,,,,,,,,,,,,,,ZX8Z3G,train_x,red_square,bottom_right,2025-06-14_16h13.25.745,HideSeek_v1,2022.2.5,59.989549819851696,
,5,1,2,1,-3,0,46,,train_dim1_1,27,30,,,,2,0,2,0,,,,,,,,,0,0,0,0,0,26,26,26,3,0,3,0,,,,,,,,,,,,,,,,,,,,,,,,,,,,,,,,,,,,,,,,,,,,,,,,,,,,,,,,,,,,,,,,30,,,,,,,,1942.6292503000004,1942.6292503000004,1942.6292503000004,1942.6292503000004,1942.6292503000004,return,0.6268229999986943,16,0,0,1,-2.7755575615628914e-17,-0.32,return,0.5445227000018349,4,-59,-2.7755575615628914e-17,-0.32,,,,,,,,,,,,,,,,,,,,,,,,,,,,,,,,,,,,,,,,,,,,,,,,,,,,,,,,ZX8Z3G,train_x,red_square,bottom_right,2025-06-14_16h13.25.745,HideSeek_v1,2022.2.5,59.989549819851696,
,8,1,7,1,-1,0,26,,train_dim1_1,28,30,,,,2,0,2,0,,,,,,,,,0,0,0,0,0,27,27,27,0,0,0,0,,,,,,,,,,,,,,,,,,,,,,,,,stimuli/alien_stimuli/26.png,,,,,,,,,,,,,,,,,,,,,,,,,,,,,stimuli/alien_stimuli/46.png,46,5,29,,,,,,,30,,,,,,,,1948.0723068000007,1948.0723068000007,1948.0723068000007,1948.0723068000007,1948.0723068000007,up,2.9905772999991314,16,0,0,99,0.48,-0.24,up,2.8814224999987346,,,,,1946.4843720999997,1948.0723068000007,0,-0.32,0.0,0.24,-0.32,0,0.12,0,-0.32,1944.8284972000001,1944.8284972000001,1944.8284972000001,1944.8284972000001,1944.8284972000001,1944.8284972000001,1944.8284972000001,1944.8284972000001,1944.8162563699993,1.770317900001828,return,1.6350276000011945,,,,,,,,,,,,,,,,,,,,,,,,,,,,,,,,,ZX8Z3G,train_x,red_square,bottom_right,2025-06-14_16h13.25.745,HideSeek_v1,2022.2.5,59.989549819851696,
,8,1,7,1,-1,0,26,,train_dim1_1,28,30,,,,2,0,2,0,,,,,,,,,0,0,0,0,0,27,27,27,1,0,1,0,,,,,,,,,,,,,,,,,,,,,,,,,,,,,,,,,,,,,,,,,,,,,,,,,,,,,,,,,,,,,,,,30,,,,,,,,1951.0537927000005,1951.0537927000005,1951.0537927000005,1951.0537927000005,1951.0537927000005,return,1.3270047000005434,16,0,0,0,0.48,-0.24,return,1.236009299998841,5,-59,0.48,-0.24,,,,,,,,,,,,,,,,,,,,,,,,,,,,,,,,,,,,,,,,,,,,,,,,,,,,,,,,ZX8Z3G,train_x,red_square,bottom_right,2025-06-14_16h13.25.745,HideSeek_v1,2022.2.5,59.989549819851696,
,9,0,5,0,-4,0,56,,train_dim1_1,29,30,,,,2,0,2,0,,,,,,,,,0,0,0,0,0,28,28,28,0,0,0,0,,,,,,,,,,,,,,,,,,,,,,,,,stimuli/alien_stimuli/56.png,,,,,,,,,,,,,,,,,,,,,,,,,,,,,stimuli/alien_stimuli/26.png,26,8,30,,,,,,,30,,,,,,,,1957.3371838999992,1957.3371838999992,1957.3371838999992,1957.3371838999992,1957.3371838999992,left,1.2555793999999878,16,0,0,99,0.48000000000000004,-0.4,left,1.155253700002504,,,,,1955.7587335999997,1957.3371838999992,0.4,-0.32,0.0,0.08,-0.32,0.4,0.44,0.4,-0.32,1953.9312710999984,1953.9312710999984,1953.9312710999984,1953.9312710999984,1953.9312710999984,1953.9312710999984,1953.9312710999984,1953.9312710999984,1953.9233737699983,1.9374776000004204,return,1.8035119000014674,,,,,,,,,,,,,,,,,,,,,,,,,,,,,,,,,ZX8Z3G,train_x,red_square,bottom_right,2025-06-14_16h13.25.745,HideSeek_v1,2022.2.5,59.989549819851696,
,9,0,5,0,-4,0,56,,train_dim1_1,29,30,,,,2,0,2,0,,,,,,,,,0,0,0,0,0,28,28,28,1,0,1,0,,,,,,,,,,,,,,,,,,,,,,,,,,,,,,,,,,,,,,,,,,,,,,,,,,,,,,,,,,,,,,,,30,,,,,,,,1958.5767773000007,1958.5767773000007,1958.5767773000007,1958.5767773000007,1958.5767773000007,left,0.8095036000013351,16,0,0,99,0.4,-0.4,left,0.723779600000853,,,,,,,,,,,,,,,,,,,,,,,,,,,,,,,,,,,,,,,,,,,,,,,,,,,,,,,,,,,,ZX8Z3G,train_x,red_square,bottom_right,2025-06-14_16h13.25.745,HideSeek_v1,2022.2.5,59.989549819851696,
,9,0,5,0,-4,0,56,,train_dim1_1,29,30,,,,2,0,2,0,,,,,,,,,0,0,0,0,0,28,28,28,2,0,2,0,,,,,,,,,,,,,,,,,,,,,,,,,,,,,,,,,,,,,,,,,,,,,,,,,,,,,,,,,,,,,,,,30,,,,,,,,1959.3940675999984,1959.3940675999984,1959.3940675999984,1959.3940675999984,1959.3940675999984,left,0.6937366999991355,16,0,0,99,0.32,-0.4,left,0.6179440000014438,,,,,,,,,,,,,,,,,,,,,,,,,,,,,,,,,,,,,,,,,,,,,,,,,,,,,,,,,,,,ZX8Z3G,train_x,red_square,bottom_right,2025-06-14_16h13.25.745,HideSeek_v1,2022.2.5,59.989549819851696,
,9,0,5,0,-4,0,56,,train_dim1_1,29,30,,,,2,0,2,0,,,,,,,,,0,0,0,0,0,28,28,28,3,0,3,0,,,,,,,,,,,,,,,,,,,,,,,,,,,,,,,,,,,,,,,,,,,,,,,,,,,,,,,,,,,,,,,,30,,,,,,,,1960.0941987999977,1960.0941987999977,1960.0941987999977,1960.0941987999977,1960.0941987999977,left,1.2775309999997262,16,0,0,99,0.24,-0.4,left,1.1901341999982833,,,,,,,,,,,,,,,,,,,,,,,,,,,,,,,,,,,,,,,,,,,,,,,,,,,,,,,,,,,,ZX8Z3G,train_x,red_square,bottom_right,2025-06-14_16h13.25.745,HideSeek_v1,2022.2.5,59.989549819851696,
,9,0,5,0,-4,0,56,,train_dim1_1,29,30,,,,2,0,2,0,,,,,,,,,0,0,0,0,0,28,28,28,4,0,4,0,,,,,,,,,,,,,,,,,,,,,,,,,,,,,,,,,,,,,,,,,,,,,,,,,,,,,,,,,,,,,,,,30,,,,,,,,1961.3796225000006,1961.3796225000006,1961.3796225000006,1961.3796225000006,1961.3796225000006,return,0.5930490999999165,17,0,0,1,0.24,-0.4,return,0.5104183000003104,5,-63,0.24,-0.4,,,,,,,,,,,,,,,,,,,,,,,,,,,,,,,,,,,,,,,,,,,,,,,,,,,,,,,,ZX8Z3G,train_x,red_square,bottom_right,2025-06-14_16h13.25.745,HideSeek_v1,2022.2.5,59.989549819851696,
,7,2,7,2,0,0,16,,train_dim1_1,30,30,,,,2,0,2,0,,,,,,,,,0,0,0,0,0,29,29,29,0,0,0,0,,,,,,,,,,,,,,,,,,,,,,,,,stimuli/alien_stimuli/16.png,,,,,,,,,,,,,,,,,,,,,,,,,,,,,stimuli/alien_stimuli/56.png,56,9,31,,,,,,,30,,,,,,,,1967.858142000001,1967.858142000001,1967.858142000001,1967.858142000001,1967.858142000001,return,1.5051566000001912,18,0,0,1,0.4,-0.24,return,1.3960619999998016,5,-63,0.4,-0.24,1966.284163100001,1967.858142000001,0.24,-0.4,0.0,0.32,-0.4,0.24,0.4,0.24,-0.4,1963.5358959000005,1963.5358959000005,1963.5358959000005,1963.5358959000005,1963.5358959000005,1963.5358959000005,1963.5358959000005,1963.5358959000005,1963.515192260001,2.8544509999992442,return,2.72672909999892,,,,,,,,,,,,,,,,,,,,,,,,,,,,,,,,,ZX8Z3G,train_x,red_square,bottom_right,2025-06-14_16h13.25.745,HideSeek_v1,2022.2.5,59.989549819851696,
,,,,,,,,,,,30,,,,2,0,2,0,,,,,,,,,,,,,,,,,,,,,,,,,,,,,,,,,,,,,,,,,,,,,,,,,,,,,,,,,,,,,,,,,,,,,,,,,,stimuli/alien_stimuli/16.png,16,7,32,21,0.7,0.75,1,1,1,30,0,conditions/schedules/train_x_first/red_square_00/bottom_right/inputTrain_2.1.xlsx,99,1,2,1,0,,,,,,,,,,,1,,,,,,,,,1972.4058254999982,1973.9475079000003,0.4,-0.24,0.0,0.0,-0.24,0.4,0.4,0.4,-0.24,1970.9184677000012,1970.9184677000012,1970.9184677000012,1970.9184677000012,1970.9184677000012,1970.9184677000012,1970.9184677000012,1970.9184677000012,1970.9043542699987,1.6033969999989495,return,1.4603401999993366,0,0.9,0,1,18,,,,,,,,,,,,,,,,,,,,,,,,,,,,ZX8Z3G,train_x,red_square,bottom_right,2025-06-14_16h13.25.745,HideSeek_v1,2022.2.5,59.989549819851696,
,,,,,,,,,,,,,,,3,0,3,0,0,0,0,0,,,,,,,,,,,,,,,,,,,,,,,,,,,,,,,conditions/schedules/train_x_first/red_square_00/bottom_right/instructions/Slide17.png,conditions/schedules/train_x_first/red_square_00/bottom_right/instructions/Audio17.wav,1973.9475079000003,1973.9403942300012,17,"[4.233679999997548, 17.83399759999884, 16.446889899998496, 19.086475600000995, 4.805322799998976, 5.184424899998703, 5.603338699998858, 11.565710200000467, 6.50517260000197, 7.103667499999574, 9.90597809999963, 13.524624099998618, 19.8348447999997, 13.233098799999425, 30.949961000002077, 21.938971499999752, 67.86330269999962]","[0.03579829999944195, 0.06665970000176458, 0.0545127000004868, 0.06830840000111493, 0.08027059999949415, 0.21549949999825913, 0.039351700001134304, 0.11658230000102776, 0.0646325000016077, 0.08105500000237953, 0.06369999999878928, 13.524631399999635, 0.03511900000012247, 13.233106099996803, 0.05989140000019688, 21.938979099999415, 67.86331040000005]",0,,,,,,,,,,,,,,,,,,,,,,,,,,,,,,,,,,,,,,,,,,,,,,,,,,,,,,,,,,,,,,,,,,,,,,,,,,,,,,,,,,,,,,,,,,,,,,,,,,,,,,,,,,,,,,,,,,,,,,,,,,,,ZX8Z3G,train_x,red_square,bottom_right,2025-06-14_16h13.25.745,HideSeek_v1,2022.2.5,59.989549819851696,
,,,,,,,,,,,,,,,3,0,3,0,1,0,1,0,,,,,,,,,,,,,,,,,,,,,,,,,,,,,,,conditions/schedules/train_x_first/red_square_00/bottom_right/instructions/Slide18.png,conditions/schedules/train_x_first/red_square_00/bottom_right/instructions/Audio18.wav,2041.8694141999986,2041.8631098400008,18,"[4.233679999997548, 17.83399759999884, 16.446889899998496, 19.086475600000995, 4.805322799998976, 5.184424899998703, 5.603338699998858, 11.565710200000467, 6.50517260000197, 7.103667499999574, 9.90597809999963, 13.524624099998618, 19.8348447999997, 13.233098799999425, 30.949961000002077, 21.938971499999752, 67.86330269999962, 6.330355099998997]","[0.03579829999944195, 0.06665970000176458, 0.0545127000004868, 0.06830840000111493, 0.08027059999949415, 0.21549949999825913, 0.039351700001134304, 0.11658230000102776, 0.0646325000016077, 0.08105500000237953, 0.06369999999878928, 13.524631399999635, 0.03511900000012247, 13.233106099996803, 0.05989140000019688, 21.938979099999415, 0.014080900000408292, 6.330363599998236]",0,,,,,,,,,,,,,,,,,,,,,,,,,,,,,,,,,,,,,,,,,,,,,,,,,,,,,,,,,,,,,,,,,,,,,,,,,,,,,,,,,,,,,,,,,,,,,,,,,,,,,,,,,,,,,,,,,,,,,,,,,,,,ZX8Z3G,train_x,red_square,bottom_right,2025-06-14_16h13.25.745,HideSeek_v1,2022.2.5,59.989549819851696,
,,,,,,,,,,,,,,,3,0,3,0,2,0,2,0,,,,,,,,,,,,,,,,,,,,,,,,,,,,,,,conditions/schedules/train_x_first/red_square_00/bottom_right/instructions/Slide19.png,conditions/schedules/train_x_first/red_square_00/bottom_right/instructions/Audio19.wav,2048.2545081999997,2048.251891739998,19,"[4.233679999997548, 17.83399759999884, 16.446889899998496, 19.086475600000995, 4.805322799998976, 5.184424899998703, 5.603338699998858, 11.565710200000467, 6.50517260000197, 7.103667499999574, 9.90597809999963, 13.524624099998618, 19.8348447999997, 13.233098799999425, 30.949961000002077, 21.938971499999752, 67.86330269999962, 6.330355099998997, 10.603546400001505]","[0.03579829999944195, 0.06665970000176458, 0.0545127000004868, 0.06830840000111493, 0.08027059999949415, 0.21549949999825913, 0.039351700001134304, 0.11658230000102776, 0.0646325000016077, 0.08105500000237953, 0.06369999999878928, 13.524631399999635, 0.03511900000012247, 13.233106099996803, 0.05989140000019688, 21.938979099999415, 0.014080900000408292, 0.00022610000087297522, 10.603558000002522]",0,,,,,,,,,,,,,,,,,,,,,,,,,,,,,,,,,,,,,,,,,,,,,,,,,,,,,,,,,,,,,,,,,,,,,,,,,,,,,,,,,,,,,,,,,,,,,,,,,,,,,,,,,,,,,,,,,,,,,,,,,,,,ZX8Z3G,train_x,red_square,bottom_right,2025-06-14_16h13.25.745,HideSeek_v1,2022.2.5,59.989549819851696,
,,,,,,,,,,,,,,,3,0,3,0,3,0,3,0,,,,,,,,,,,,,,,,,,,,,,,,,,,,,,,conditions/schedules/train_x_first/red_square_00/bottom_right/instructions/Slide20.png,conditions/schedules/train_x_first/red_square_00/bottom_right/instructions/Audio20.wav,2058.9316948999985,2058.9275184499984,20,"[4.233679999997548, 17.83399759999884, 16.446889899998496, 19.086475600000995, 4.805322799998976, 5.184424899998703, 5.603338699998858, 11.565710200000467, 6.50517260000197, 7.103667499999574, 9.90597809999963, 13.524624099998618, 19.8348447999997, 13.233098799999425, 30.949961000002077, 21.938971499999752, 67.86330269999962, 6.330355099998997, 10.603546400001505, 14.338580099996761]","[0.03579829999944195, 0.06665970000176458, 0.0545127000004868, 0.06830840000111493, 0.08027059999949415, 0.21549949999825913, 0.039351700001134304, 0.11658230000102776, 0.0646325000016077, 0.08105500000237953, 0.06369999999878928, 13.524631399999635, 0.03511900000012247, 13.233106099996803, 0.05989140000019688, 21.938979099999415, 0.014080900000408292, 0.00022610000087297522, 0.06323209999754908, 14.3385875999993]",0,,,,,,,,,,,,,,,,,,,,,,,,,,,,,,,,,,,,,,,,,,,,,,,,,,,,,,,,,,,,,,,,,,,,,,,,,,,,,,,,,,,,,,,,,,,,,,,,,,,,,,,,,,,,,,,,,,,,,,,,,,,,ZX8Z3G,train_x,red_square,bottom_right,2025-06-14_16h13.25.745,HideSeek_v1,2022.2.5,59.989549819851696,
1,7,3,7,8,0,5,11,2,instr_dim1_2,,,,,,3,0,3,0,,,,,0,0,0,0,,,,,,,,,,,,,,,,,,,,,,,,,,,,,,,,,,,,,stimuli/alien_stimuli/11.png,conditions/schedules/train_x_first/red_square_00/bottom_right/inputInstr_2.xlsx,stimuli/alien_stimuli/11.png,2073.3677997999985,2073.3677997999985,2073.3677997999985,2073.3677997999985,2073.3726206699976,return,6.631738699998095,"[-0.16, -0.08, 0, 0.08, 0.16, 0.24, 0.32, 0.4, 0.48, 0.56]","[-0.4, -0.32, -0.24, -0.16, -0.08, 0, 0.08, 0.16, 0.24, 0.32]",8,3,7,7,0.4,0.0,2080.1568965000006,2080.1568965000006,2080.1568965000006,2080.1568965000006,2080.1568965000006,2080.1568965000006,2080.1568965000006,2080.14486808,6.773523700001533,return,6.623562900000252,stimuli/alien_stimuli/11.png,11,7,1,,,,,,,,,,,,,,,,,,,,,,,,,,,,,,,,,,,,,,,,,,,,,,,,,,,,,,,,,,,,,,,,,,,,,,,,,,,,,,,,,,,,,,,,,ZX8Z3G,train_x,red_square,bottom_right,2025-06-14_16h13.25.745,HideSeek_v1,2022.2.5,59.989549819851696,
,,,,,,,,,,,30,,,,3,0,3,0,,,,,,,,,,,,,,,,,,,,,,,,,,,,,,,,,,,,,,,,,,,,,,,,,,,,,,,,,,,,,,,,,,,,,,,,,,,,,,21,0.7,0.75,1,99,2,30,0,conditions/schedules/train_x_first/red_square_00/bottom_right/inputTrain_2.1.xlsx,99,1,2,1,0,,,,,,,,,,,,,,,,,,,,,,,,,,,,,,,,,,,,,,,,,,,,,,,,,,,,,,,,,,,,,,,,,,,,,,,,,,,ZX8Z3G,train_x,red_square,bottom_right,2025-06-14_16h13.25.745,HideSeek_v1,2022.2.5,59.989549819851696,
,,,,,,,,,,,,,,,4,0,4,0,0,0,0,0,,,,,,,,,,,,,,,,,,,,,,,,,,,,,,,conditions/schedules/train_x_first/red_square_00/bottom_right/instructions/Slide21.png,conditions/schedules/train_x_first/red_square_00/bottom_right/instructions/Audio21.wav,2086.9329026999985,2086.9338195900004,21,"[4.233679999997548, 17.83399759999884, 16.446889899998496, 19.086475600000995, 4.805322799998976, 5.184424899998703, 5.603338699998858, 11.565710200000467, 6.50517260000197, 7.103667499999574, 9.90597809999963, 13.524624099998618, 19.8348447999997, 13.233098799999425, 30.949961000002077, 21.938971499999752, 67.86330269999962, 6.330355099998997, 10.603546400001505, 14.338580099996761, 17.646271099998557]","[0.03579829999944195, 0.06665970000176458, 0.0545127000004868, 0.06830840000111493, 0.08027059999949415, 0.21549949999825913, 0.039351700001134304, 0.11658230000102776, 0.0646325000016077, 0.08105500000237953, 0.06369999999878928, 13.524631399999635, 0.03511900000012247, 13.233106099996803, 0.05989140000019688, 21.938979099999415, 0.014080900000408292, 0.00022610000087297522, 0.06323209999754908, 14.3385875999993, 17.646278899999743]",0,,,,,,,,,,,,,,,,,,,,,,,,,,,,,,,,,,,,,,,,,,,,,,,,,,,,,,,,,,,,,,,,,,,,,,,,,,,,,,,,,,,,,,,,,,,,,,,,,,,,,,,,,,,,,,,,,,,,,,,,,,,,ZX8Z3G,train_x,red_square,bottom_right,2025-06-14_16h13.25.745,HideSeek_v1,2022.2.5,59.989549819851696,
2,5,3,5,3,0,0,16,2,instr_dim1_2,,,,,,4,0,4,0,,,,,0,0,0,0,,,,,,,,,,,,,,,,,,,,,,,,,,,,,,,,,,,,,stimuli/alien_stimuli/16.png,conditions/schedules/train_x_first/red_square_00/bottom_right/inputInstr_2.xlsx,stimuli/alien_stimuli/16.png,2104.681480700001,2104.681480700001,2104.681480700001,2104.681480700001,2104.681856970001,return,5.944425800000317,"[-0.16, -0.08, 0, 0.08, 0.16, 0.24, 0.32, 0.4, 0.48, 0.56]","[-0.4, -0.32, -0.24, -0.16, -0.08, 0, 0.08, 0.16, 0.24, 0.32]",3,3,5,5,0.0,0.0,2110.7801388000007,2110.7801388000007,2110.7801388000007,2110.7801388000007,2110.7801388000007,2110.7801388000007,2110.7801388000007,2110.7701847799995,5.939532500000496,return,5.791164499998558,stimuli/alien_stimuli/16.png,16,5,2,,,,,,,,,,,,,,,,,,,,,,,,,,,,,,,,,,,,,,,,,,,,,,,,,,,,,,,,,,,,,,,,,,,,,,,,,,,,,,,,,,,,,,,,,ZX8Z3G,train_x,red_square,bottom_right,2025-06-14_16h13.25.745,HideSeek_v1,2022.2.5,59.989549819851696,
,,,,,,,,,,,30,,,,4,0,4,0,,,,,,,,,,,,,,,,,,,,,,,,,,,,,,,,,,,,,,,,,,,,,,,,,,,,,,,,,,,,,,,,,,,,,,,,,,,,,,21,0.7,0.75,1,99,2,30,0,conditions/schedules/train_x_first/red_square_00/bottom_right/inputTrain_2.1.xlsx,99,1,2,1,0,,,,,,,,,,,,,,,,,,,,,,,,,,,,,,,,,,,,,,,,,,,,,,,,,,,,,,,,,,,,,,,,,,,,,,,,,,,ZX8Z3G,train_x,red_square,bottom_right,2025-06-14_16h13.25.745,HideSeek_v1,2022.2.5,59.989549819851696,
,,,,,,,,,,,,,,,5,0,5,0,0,0,0,0,,,,,,,,,,,,,,,,,,,,,,,,,,,,,,,conditions/schedules/train_x_first/red_square_00/bottom_right/instructions/Slide22.png,conditions/schedules/train_x_first/red_square_00/bottom_right/instructions/Audio22.wav,2116.7326436000003,2116.725400689999,22,"[4.233679999997548, 17.83399759999884, 16.446889899998496, 19.086475600000995, 4.805322799998976, 5.184424899998703, 5.603338699998858, 11.565710200000467, 6.50517260000197, 7.103667499999574, 9.90597809999963, 13.524624099998618, 19.8348447999997, 13.233098799999425, 30.949961000002077, 21.938971499999752, 67.86330269999962, 6.330355099998997, 10.603546400001505, 14.338580099996761, 17.646271099998557, 14.969900299998699]","[0.03579829999944195, 0.06665970000176458, 0.0545127000004868, 0.06830840000111493, 0.08027059999949415, 0.21549949999825913, 0.039351700001134304, 0.11658230000102776, 0.0646325000016077, 0.08105500000237953, 0.06369999999878928, 13.524631399999635, 0.03511900000012247, 13.233106099996803, 0.05989140000019688, 21.938979099999415, 0.014080900000408292, 0.00022610000087297522, 0.06323209999754908, 14.3385875999993, 17.646278899999743, 14.969907200000307]",0,,,,,,,,,,,,,,,,,,,,,,,,,,,,,,,,,,,,,,,,,,,,,,,,,,,,,,,,,,,,,,,,,,,,,,,,,,,,,,,,,,,,,,,,,,,,,,,,,,,,,,,,,,,,,,,,,,,,,,,,,,,,ZX8Z3G,train_x,red_square,bottom_right,2025-06-14_16h13.25.745,HideSeek_v1,2022.2.5,59.989549819851696,
,5,0,5,1,0,1,15,,train_dim1_2,1,30,,,,5,0,5,0,,,,,,,,,0,0,0,0,0,0,0,0,0,0,0,0,,,,,,,,,,,,,,,,,,,,,,,,,stimuli/alien_stimuli/15.png,,,,,,,,,,,,,,,,,,,,,,,,,,,,,,,,,,,,,,,30,,,,,,,,2131.8012954000005,2131.8012954000005,2131.8012954000005,2131.8012954000005,2131.8012954000005,return,4.5474222999982885,0,1,0,0,0.24,-0.4,return,4.450113399998372,5,-63,0.24,-0.4,,,,,,,,,,,,,,,,,,,,,,,,,,,,,,,,,,,,,,,,,,,,,,,,,,,,,,,,ZX8Z3G,train_x,red_square,bottom_right,2025-06-14_16h13.25.745,HideSeek_v1,2022.2.5,59.989549819851696,
,8,2,8,2,0,0,16,,train_dim1_2,2,30,,,,5,0,5,0,,,,,,,,,0,0,0,0,0,1,1,1,0,0,0,0,,,,,,,,,,,,,,,,,,,,,,,,,stimuli/alien_stimuli/16.png,,,,,,,,,,,,,,,,,,,,,,,,,,,,,stimuli/alien_stimuli/15.png,15,5,3,,,,,,,30,,,,,,,,2143.2869733000007,2143.2869733000007,2143.2869733000007,2143.2869733000007,2143.2869733000007,up,3.424451799997769,0,1,0,99,0.48,-0.15999999999999998,up,3.3392714000001433,,,,,2141.7295333,2143.2869733000007,0.24,-0.32,0.08,0.0,-0.36,0.24,0.24,0.24,-0.32,2137.9048734999997,2137.9048734999997,2137.9048734999997,2137.9048734999997,2137.9048734999997,2137.9048734999997,2137.9048734999997,2137.9048734999997,2137.8928317699974,3.938762500001758,return,3.799502999998367,,,,,,,,,,,,,,,,,,,,,,,,,,,,,,,,,ZX8Z3G,train_x,red_square,bottom_right,2025-06-14_16h13.25.745,HideSeek_v1,2022.2.5,59.989549819851696,
,8,2,8,2,0,0,16,,train_dim1_2,2,30,,,,5,0,5,0,,,,,,,,,0,0,0,0,0,1,1,1,1,0,1,0,,,,,,,,,,,,,,,,,,,,,,,,,,,,,,,,,,,,,,,,,,,,,,,,,,,,,,,,,,,,,,,,30,,,,,,,,2146.718133800001,2146.718133800001,2146.718133800001,2146.718133800001,2146.718133800001,return,1.743777699997736,0,1,0,0,0.48,-0.15999999999999998,return,1.6563757000003534,6,-63,0.48,-0.15999999999999998,,,,,,,,,,,,,,,,,,,,,,,,,,,,,,,,,,,,,,,,,,,,,,,,,,,,,,,,ZX8Z3G,train_x,red_square,bottom_right,2025-06-14_16h13.25.745,HideSeek_v1,2022.2.5,59.989549819851696,
,7,3,7,6,0,3,13,,train_dim1_2,3,30,,,,5,0,5,0,,,,,,,,,0,0,0,0,0,2,2,2,0,0,0,0,,,,,,,,,,,,,,,,,,,,,,,,,stimuli/alien_stimuli/13.png,,,,,,,,,,,,,,,,,,,,,,,,,,,,,stimuli/alien_stimuli/16.png,16,8,4,,,,,,,30,,,,,,,,2154.577639799998,2154.577639799998,2154.577639799998,2154.577639799998,2154.577639799998,up,4.242851300001348,0,1,0,99,0.4,-0.08,up,4.157789500000945,,,,,2153.022165800001,2154.577639799998,0.48,-0.24,0.0,0.0,-0.24,0.48,0.48,0.48,-0.24,2150.031481400001,2150.031481400001,2150.031481400001,2150.031481400001,2150.031481400001,2150.031481400001,2150.031481400001,2150.031481400001,2150.0195067700006,3.104891000002681,return,2.9654316999985895,,,,,,,,,,,,,,,,,,,,,,,,,,,,,,,,,ZX8Z3G,train_x,red_square,bottom_right,2025-06-14_16h13.25.745,HideSeek_v1,2022.2.5,59.989549819851696,
,7,3,7,6,0,3,13,,train_dim1_2,3,30,,,,5,0,5,0,,,,,,,,,0,0,0,0,0,2,2,2,1,0,1,0,,,,,,,,,,,,,,,,,,,,,,,,,,,,,,,,,,,,,,,,,,,,,,,,,,,,,,,,,,,,,,,,30,,,,,,,,2158.8277708999995,2158.8277708999995,2158.8277708999995,2158.8277708999995,2158.8277708999995,up,0.6766386000017519,0,1,0,99,0.4,0.0,up,0.5847213999986707,,,,,,,,,,,,,,,,,,,,,,,,,,,,,,,,,,,,,,,,,,,,,,,,,,,,,,,,,,,,ZX8Z3G,train_x,red_square,bottom_right,2025-06-14_16h13.25.745,HideSeek_v1,2022.2.5,59.989549819851696,
,7,3,7,6,0,3,13,,train_dim1_2,3,30,,,,5,0,5,0,,,,,,,,,0,0,0,0,0,2,2,2,2,0,2,0,,,,,,,,,,,,,,,,,,,,,,,,,,,,,,,,,,,,,,,,,,,,,,,,,,,,,,,,,,,,,,,,30,,,,,,,,2159.512890599999,2159.512890599999,2159.512890599999,2159.512890599999,2159.512890599999,up,0.7250194000007468,0,1,0,99,0.4,0.08,up,0.6375286999973468,,,,,,,,,,,,,,,,,,,,,,,,,,,,,,,,,,,,,,,,,,,,,,,,,,,,,,,,,,,,ZX8Z3G,train_x,red_square,bottom_right,2025-06-14_16h13.25.745,HideSeek_v1,2022.2.5,59.989549819851696,
,7,3,7,6,0,3,13,,train_dim1_2,3,30,,,,5,0,5,0,,,,,,,,,0,0,0,0,0,2,2,2,3,0,3,0,,,,,,,,,,,,,,,,,,,,,,,,,,,,,,,,,,,,,,,,,,,,,,,,,,,,,,,,,,,,,,,,30,,,,,,,,2160.244138599999,2160.244138599999,2160.244138599999,2160.244138599999,2160.244138599999,up,0.8939593000031891,0,1,0,99,0.4,0.16,up,0.8056178000006184,,,,,,,,,,,,,,,,,,,,,,,,,,,,,,,,,,,,,,,,,,,,,,,,,,,,,,,,,,,,ZX8Z3G,train_x,red_square,bottom_right,2025-06-14_16h13.25.745,HideSeek_v1,2022.2.5,59.989549819851696,
,7,3,7,6,0,3,13,,train_dim1_2,3,30,,,,5,0,5,0,,,,,,,,,0,0,0,0,0,2,2,2,4,0,4,0,,,,,,,,,,,,,,,,,,,,,,,,,,,,,,,,,,,,,,,,,,,,,,,,,,,,,,,,,,,,,,,,30,,,,,,,,2161.1454673000007,2161.1454673000007,2161.1454673000007,2161.1454673000007,2161.1454673000007,up,1.260753599999589,0,1,0,99,0.4,0.24,up,1.1841639999984181,,,,,,,,,,,,,,,,,,,,,,,,,,,,,,,,,,,,,,,,,,,,,,,,,,,,,,,,,,,,ZX8Z3G,train_x,red_square,bottom_right,2025-06-14_16h13.25.745,HideSeek_v1,2022.2.5,59.989549819851696,
,7,3,7,6,0,3,13,,train_dim1_2,3,30,,,,5,0,5,0,,,,,,,,,0,0,0,0,0,2,2,2,5,0,5,0,,,,,,,,,,,,,,,,,,,,,,,,,,,,,,,,,,,,,,,,,,,,,,,,,,,,,,,,,,,,,,,,30,,,,,,,,2162.4140171,2162.4140171,2162.4140171,2162.4140171,2162.4140171,return,1.410280199997942,0,0,0,0,0.4,0.24,return,1.3331747000011092,11,-63,0.4,0.24,,,,,,,,,,,,,,,,,,,,,,,,,,,,,,,,,,,,,,,,,,,,,,,,,,,,,,,,ZX8Z3G,train_x,red_square,bottom_right,2025-06-14_16h13.25.745,HideSeek_v1,2022.2.5,59.989549819851696,
